session_id,user_id,temp1,temp2,bpm1,bpm2,spo2_1,spo2_2,mpu1_acc_x,mpu1_acc_y,mpu1_acc_z,mpu2_acc_x,mpu2_acc_y,mpu2_acc_z,mpu1_gyr_x,mpu1_gyr_y,mpu1_gyr_z,mpu2_gyr_x,mpu2_gyr_y,mpu2_gyr_z,fsr_1,fsr_2,fsr_3,fsr_4,fsr_5,fsr_6,fsr_7,fsr_8,fsr_9,fsr_10,fsr_11,fsr_12,stress_level,posture_level,timestamp
1,1,36.44,36.7,110,107,98,96,-1.676,0.127,-1.672,1.024,0.128,-0.683,226.115,-63.926,115.812,-220.473,220.276,55.287,25.68,59.18,25.16,12.15,61.85,79.26,55.98,23.69,19.56,69.62,52.97,36.85,2,2,23/2/2026 11:24
2,1,36.8,36.19,66,104,98,100,-1.127,-1.073,-1.217,0.829,1.723,-1.423,114.346,243.299,180.486,-107.236,-21.101,63.728,88.76,28.76,16.85,42.66,68.48,60.01,70.98,72.89,33.77,88.47,46.44,32.38,2,2,23/2/2026 11:25
3,1,36.63,36.98,73,69,96,100,0.917,1.344,-0.021,-1.257,-0.224,-0.259,-245.339,-128.875,133.488,2.56,153.213,-218.134,71.35,68.31,23.12,31.07,67.46,86.5,45.31,63.49,43.43,25.28,78.7,57.88,2,2,23/2/2026 11:26
4,1,35.83,35.67,84,87,98,97,0.143,-0.539,1.546,-1.179,-1.264,-1.191,-98.936,-229.587,66.131,93.655,-127.77,-81.303,76.48,84.52,55.77,79.82,58.48,15.07,65.23,20.41,33.72,76.11,69.8,85.1,2,3,23/2/2026 11:27
5,1,37.16,36.64,92,98,95,96,-0.299,0.911,-1.702,0.196,0.222,0.977,-186.997,-189.691,4.956,235.809,88.753,43.476,59.3,46.36,80.73,49.56,57.09,87.83,82.61,31.94,85.16,62.17,81.81,82.59,2,3,23/2/2026 11:28
6,1,35.61,37.18,68,90,98,96,-0.072,-1.939,-1.779,-0.645,-0.439,-1.765,169.465,-196.909,64.284,-25.888,-187.333,-191.746,74.01,63.83,71.83,71.38,28.77,30.29,38.28,30.25,64.57,70.57,50.87,53.81,2,2,23/2/2026 11:29
7,1,36.51,35.94,66,110,100,94,1.008,-0.908,0.585,-0.087,-0.712,1.46,191.879,-35.473,-24.734,-114.093,-127.584,39.458,19.57,36.98,85.64,43.73,71.34,54.96,66.02,27.88,79.08,37.85,61.92,28.13,2,2,23/2/2026 11:30
8,1,37.24,35.56,89,108,96,97,-0.051,0.176,1.266,1.467,1.468,0.72,198.478,169.929,105.787,146.15,25.273,-208.793,51.95,18.69,51.33,47.06,24.68,43.41,65.06,27.51,86.61,29.17,41.98,22.04,2,2,23/2/2026 11:31
9,1,37.31,35.54,71,77,94,98,0.14,-0.208,0.684,1.396,-1.67,-0.583,178.8,188.876,185.92,223.836,211.465,-67.36,84.02,54.14,11.58,28.61,25.81,87.58,30.81,77.83,55.44,59.1,60.2,59.26,2,2,23/2/2026 11:32
10,1,37.26,35.84,73,68,97,97,-0.401,-1.729,-0.384,0.743,-0.516,0.113,-98.929,156.935,-76.869,82.072,193.17,14.849,65.02,45.59,29.87,60.53,40.98,26.54,26.42,34.79,79.76,31.52,17.66,75.34,2,2,23/2/2026 11:33
11,1,35.88,35.73,108,70,96,94,-1.662,-0.437,1.361,0.152,0.288,1.753,-183.911,109.223,200.09,4.617,-69.679,195.729,38,58.82,44.34,87.41,29.68,49.07,22.05,10.07,80.18,77.19,34.91,65.08,2,2,23/2/2026 11:34
12,1,36.69,36.64,62,105,99,99,1.866,0.952,0.96,0.918,-1.813,0.508,-8.165,-208.364,37.004,23.019,140.272,-237.308,14.84,83.14,18.64,55.86,46.19,47.9,86.29,70.28,12.73,45.4,59.56,27.99,2,2,23/2/2026 11:35
13,1,37.28,35.77,97,94,94,100,1.067,-0.449,1.59,-1.775,-0.406,-1.759,0.785,180.046,174.98,164.119,-49.767,248.386,63.96,87.68,49.88,23.11,49.36,53.17,71.72,70.94,51.01,86.82,61.15,54.38,2,3,23/2/2026 11:36
14,1,35.87,36.76,60,71,100,95,0.781,0.716,0.021,-1.726,-1.994,-1.962,-95.815,-28.805,239.235,-23.001,17.572,125.499,80.34,68.63,14.46,15.69,59.73,24.65,76.63,68.02,64.23,87.93,18.87,35.98,2,2,23/2/2026 11:37
15,1,35.58,36.84,96,67,94,95,-0.669,-1.793,0.583,-1.867,0.5,0.759,-0.723,1.084,-124.273,101.612,-214.166,-58.403,32.85,37.37,75.46,67.21,60.08,51.72,44.7,41.15,32.14,78.57,58.49,51.73,2,2,23/2/2026 11:38
16,2,36.03,36.75,71,92,94,99,-0.752,-0.792,1.006,-1.771,-0.116,-1.127,157.209,128.84,185.019,-8.625,164.836,142.248,57.25,83.92,60.63,37.21,58.51,29.39,84.12,30.67,48.69,77.28,15.81,24.09,2,2,23/2/2026 11:39
17,2,35.81,35.93,76,75,95,94,-0.921,-0.726,1.183,0.968,1.706,-0.75,-152.867,212.954,-99.92,-23.672,-230.477,128.107,56.12,62.85,42.27,62.79,78.08,17.32,32.83,39.6,80.49,66.61,40.24,41.85,2,2,23/2/2026 11:40
18,2,36.23,35.52,80,106,94,94,-0.092,0.739,-0.749,1.203,-0.162,1.533,5.842,-167.403,43.825,71.489,133.037,-25.092,74.45,88.83,23.74,40.68,20.16,11.07,34.18,80.6,50.55,22.88,71.61,89.32,2,2,23/2/2026 11:41
19,2,37.09,35.83,89,60,99,94,0.724,1.533,-1.842,-0.159,-0.785,1.716,-90.149,-240.828,-44.519,-227.781,185.555,202.285,18.92,38.24,64.95,13.92,44.75,86.55,53.86,60.34,48.82,48.3,62.79,28.78,2,2,23/2/2026 11:42
20,2,37.11,36.11,66,95,94,100,1.888,-1.097,-1.336,-1.156,0.041,1.111,122.609,-107.597,-7.226,145.655,-226.717,20.441,35.87,36.04,17.06,25.25,33.93,39.61,18.72,29.4,28.08,81.58,59.72,31.57,2,2,23/2/2026 11:43
21,2,36.13,37.26,67,108,98,96,1.23,0.122,1.916,-0.82,1.851,-1.43,138.458,166.695,97.691,111.008,129.416,59.955,82.21,75.29,42.73,37.83,63.66,13.74,48.18,75.79,27.2,85.49,69.32,78.73,2,2,23/2/2026 11:44
22,2,35.63,36.58,106,75,97,99,-0.947,-0.865,0.891,-1.152,0.171,-1.615,126.193,-211.682,13.045,88.935,-225.476,-171.522,60.99,57.2,41.08,51.97,41.92,49.12,61.13,73.52,81.31,75.26,64.46,58.76,2,2,23/2/2026 11:45
23,2,36.32,36.06,82,95,96,96,0.633,-0.812,-0.68,0.635,-0.231,1.307,-244.173,9.631,196.312,72.194,-158.858,-231.062,18.53,64.35,64.41,86.05,57.25,60.52,62.99,77.73,22.16,83.98,29.06,28.6,2,2,23/2/2026 11:46
24,2,36.97,37.24,81,74,94,94,-1.672,-0.815,0.153,-1.27,-0.433,1.687,187.949,232.578,-154.674,-189.087,86.585,-232.684,81.56,62.93,24.51,12.63,81.06,79.95,12.64,18.58,50.29,82.74,30.39,31.27,2,2,23/2/2026 11:47
25,2,36.9,37.27,89,74,95,97,0.907,-1.324,0.185,0.914,-0.472,1.899,-53.258,213.6,-170.059,-185.293,-44.98,-238.643,45.86,60.49,86.18,19.54,65.38,44.44,29.39,76.01,65.8,25.44,69.91,66.55,2,2,23/2/2026 11:48
26,2,36.93,36.99,97,86,94,100,0.163,-0.897,-1.535,-0.435,1.853,0.226,-208.307,123.717,-162.666,177.151,-196.707,225.992,33.36,59.43,45.95,40.55,10.78,50.21,14.32,61.4,14,72.84,46.59,32.91,2,2,23/2/2026 11:49
27,2,36.34,37.05,107,104,97,99,0.616,-0.127,-0.295,0.224,-1.856,-1.193,-157.506,-240.153,102.642,-117.456,158.972,-79.671,70.16,78.87,64.18,50.48,34.72,37.82,30.6,25.03,23.54,37.34,56.45,26.64,2,2,23/2/2026 11:50
28,2,36.06,35.9,73,89,97,95,-0.333,1.619,0.737,-1.615,1.011,1.474,157.388,146.706,110.976,-151.454,-233.64,-93.569,36.68,63.15,67.41,61.07,67.02,30.46,38.57,37.01,84.72,49.83,17.59,60.83,2,2,23/2/2026 11:51
29,2,36.4,36.84,62,65,96,96,-1.121,-1.543,-0.575,0.915,0.261,1.676,-191.256,-8.591,40.102,70.046,124.509,85.957,54.33,89.57,47.98,27.82,59.24,76.1,74.9,87.6,17.83,68.79,31.62,21.26,2,2,23/2/2026 11:52
30,2,35.95,35.85,66,68,97,94,0.289,1.536,0.781,0.753,1.69,-0.839,-103.108,237.404,-169.463,-20.828,-1.8,-165.639,13,61.36,59.77,32.82,49.51,87.42,11.13,41.97,76.64,32.83,73.25,66.34,2,2,23/2/2026 11:53
31,3,37.18,36.2,93,106,96,99,-0.813,0.929,1.263,-1.504,0.279,0.923,204.958,-16.31,112.706,171.757,-18.032,-146.408,64.76,20.14,76.82,56.16,69.75,13.54,22.26,62.32,33.26,52.47,47.92,13.76,2,2,23/2/2026 11:54
32,3,37.17,36.07,92,69,96,100,-1.227,-1.417,0.992,1.523,-0.344,-0.143,-185.417,-102.371,-1.024,-58.474,6.285,-180.176,11.18,38.79,74.62,24.28,15.09,38.8,77.43,51.21,45.82,87.3,45.52,68.64,2,2,23/2/2026 11:55
33,3,36.46,37.35,79,80,100,100,-1.131,-1.2,-0.396,-1.971,-1.982,1.813,-45.9,-99.251,-99.727,72.402,-76.326,168.555,60.51,27.78,45.96,42.05,22.84,83.43,56.03,60.16,29.05,72.89,40.38,14.06,2,2,23/2/2026 11:56
34,3,36.75,36.67,73,110,98,100,-1.766,1.913,-0.666,0.538,0.212,0.615,-52.873,-144.935,141.391,0.439,-243.715,-211.951,24.5,21.07,65.71,72.62,33.78,22.24,79.08,89.29,81.19,15.11,19.17,28.81,2,2,23/2/2026 11:57
35,3,35.6,35.6,108,86,99,95,1.317,-1.157,-0.69,-0.688,0.612,-0.806,-149.14,1.645,-12.098,185.352,156.64,163.435,43.91,81.56,83.83,85.37,73.49,83.01,73.23,64.73,15.33,42.35,19.98,70.37,2,3,23/2/2026 11:58
36,3,35.84,36.14,69,109,97,94,-0.511,-0.628,1.056,1.064,-1.907,-1.227,249.129,35.113,229.979,124.725,-228.254,20.562,82.22,41.42,82.59,17.71,68.45,10.65,84.04,88.9,72.5,38.2,37.62,55,2,2,23/2/2026 11:59
37,3,36.7,35.69,79,80,99,94,-0.625,-0.676,-1.722,-1.09,1.469,0.913,228.85,129.626,-102.218,79.817,-144.857,-244.501,39.74,57.43,21.81,14.45,62.45,88.27,47.68,73.73,13.22,46.13,20.08,62.39,2,2,23/2/2026 12:00
38,3,35.65,35.52,93,66,99,95,1.242,1.059,-0.329,-1.201,-1.35,-0.369,221.039,-4.161,-9.311,126.462,-90.275,-66.824,86.19,43.38,18.46,66.32,70.88,52.33,76.03,29.24,13.36,40.4,32.05,40.49,2,2,23/2/2026 12:01
39,3,36.15,36.02,62,63,97,95,-1.142,0.482,-0.184,-1.252,1.911,-1.474,-34.441,-247.68,105.94,-243.517,-59.134,-213.62,87.55,40.29,67.4,34.17,83.79,32.84,55.39,82.12,86.73,83.99,49.68,80.11,2,3,23/2/2026 12:02
40,3,37.37,37.44,80,91,98,98,-0.044,1.752,-1.481,-0.379,-0.655,-1.142,109.099,-26.169,-135.095,73.181,85.393,161.998,83.75,59.22,38.27,61.08,16.44,76.45,64.38,28.17,37.92,85.2,27.47,29.37,2,2,23/2/2026 12:03
41,3,37.43,35.56,88,92,96,98,1.781,0.03,0.866,1.269,-1.318,-0.707,145.12,-130.185,231.399,-57.29,62.76,101.887,75.33,50.51,16.69,61.7,81.75,63.74,78.76,81.72,74.05,43.72,43.14,83.23,2,3,23/2/2026 12:04
42,3,36.13,37.23,61,107,97,96,-1.473,-0.99,-1.968,-1.961,-1.667,0.34,-246.375,-232.799,153.237,-121.324,-162.338,-43.69,32,71.33,45.73,53.65,35.15,82.52,41.56,66.84,26.09,11.13,20.3,22.19,2,2,23/2/2026 12:05
43,3,36.59,36.35,70,81,96,94,-1.789,0.766,1.631,-0.672,1.204,-1.099,1.354,111.462,-82.92,110.851,99.256,-60,76.3,49,81.36,16.04,69.51,67.64,12.44,61.41,31.57,31.89,87.76,50.45,2,2,23/2/2026 12:06
44,3,36.09,36.07,100,73,100,100,1.717,0.993,0.545,0.697,1.243,1.178,-42.627,-173.663,167.566,-28.533,173.635,-233.917,70.33,70.4,60.29,30.04,44.62,34.71,50.39,80.96,82.27,75.77,29.77,40.05,2,2,23/2/2026 12:07
45,3,35.64,35.94,100,96,99,98,-0.758,1.509,-1.668,0.808,-1.587,-0.281,-89.281,215.386,-101.384,101.547,108.868,-177.835,77.86,22.08,75.15,40.54,82.15,12.59,77.13,38.63,78.91,84.56,83.12,28.27,2,2,23/2/2026 12:08
46,4,37.4,36.64,97,99,95,99,0.423,0.77,-0.591,-1.056,0.231,0.491,-235.095,-55.395,141.318,-25.184,218.155,100.022,45.12,86.06,38.85,34.48,11.71,82.68,13.93,88.85,33.57,60.66,40.77,24.7,2,2,23/2/2026 12:09
47,4,37.16,36.46,109,91,95,98,0.092,-1.714,1.34,1.341,-1.302,-0.058,-201.324,-142.54,-59.552,18.787,206.909,-240.386,71.85,52.69,41.11,20.12,32.77,11.91,50.94,16.04,14.13,22.86,72.42,10.6,2,2,23/2/2026 12:10
48,4,35.83,36.5,86,68,96,100,0.129,-1.604,0.72,-0.125,-1.897,-0.78,-71.334,30.673,38.02,-205.723,220.623,166.513,47.12,68.97,16.56,33.63,12.86,31.82,85.1,79.44,62.74,77.56,14.33,38.47,2,2,23/2/2026 12:11
49,4,36.36,36.48,88,60,96,99,-0.462,0.496,1.672,-0.166,-0.385,1.541,-33.961,93.286,120.844,-25.446,56.461,99.235,60.49,12.27,38.63,13.05,11.36,64.4,23.84,79.19,53.08,81.91,86.38,43.77,2,2,23/2/2026 12:12
50,4,36.01,36.11,61,94,96,96,1.261,1.606,1.852,-0.667,-1.346,0.627,24.817,-31.382,133.633,30.546,-126.726,37.652,34.86,33.34,67.83,66.29,35.95,40.37,58.82,80.23,84.38,52.48,22.81,50.14,2,2,23/2/2026 12:13
51,4,36.39,36.25,92,92,94,98,0.96,-0.112,0.935,0.262,0.834,-0.297,-134.249,-88.901,-118.115,152.718,-142.557,-15.759,12.62,56.98,84.54,86.62,40.19,31.57,51.16,49.03,89.51,86.96,55.83,18.15,2,2,23/2/2026 12:14
52,4,36.78,36.48,84,109,95,94,0.209,-0.062,-1.865,-1.652,0.855,-1.079,188.757,-75.549,103.167,58.369,164.725,-180.291,82.74,65.55,44.96,64.16,42.71,57.98,14.46,63.04,30.34,89.21,51.89,18.92,2,2,23/2/2026 12:15
53,4,35.5,37.5,109,87,97,96,-1.109,0.427,-0.19,0.341,0.951,1.113,175.217,146.83,197.844,27.761,-39.126,73.406,37.88,81.03,73.24,56.08,78.87,26.66,89.52,83.44,56.14,68.26,10.15,73.92,2,3,23/2/2026 12:16
54,4,35.88,36.68,82,70,95,95,-1.128,-1.434,-1.804,-1.475,-0.658,0.461,152.199,128.326,155.205,-25.444,192.222,67.905,34.75,35.87,50.55,10.34,16.54,40.04,22.26,62.91,45.64,69.54,53.2,87.8,2,2,23/2/2026 12:17
55,4,36.06,36.77,73,70,97,94,0.393,-0.29,-1.006,-0.832,0.157,1.202,-204.167,-116.262,-39.036,-217.573,-111.128,-100.535,58.64,86.16,43.9,42.51,86.82,83.43,17.23,25.55,44.52,76.73,32.47,64.76,2,2,23/2/2026 12:18
56,4,37.1,35.75,83,76,97,94,0.558,1.158,0.752,-1.284,0.775,-1.512,-142.895,98.985,21.175,-130.185,37.635,-225.859,47.56,60.04,27.95,81.89,48.61,25.62,48.06,43.23,17.57,84.25,88.6,44.37,2,2,23/2/2026 12:19
57,4,36.28,35.75,73,76,100,100,0.723,1.607,1.112,1.36,-1.278,1.875,38.434,-25.657,-25.215,-55.89,24.913,-5.814,31.95,46.85,15.49,56.73,62.96,48.88,55.85,70.11,52.47,39.08,39.34,84.89,2,2,23/2/2026 12:20
58,4,35.93,37.07,65,69,97,99,1.863,0.154,1.022,-0.9,-0.423,-1.809,-65.763,180.391,-203.044,-56.835,-55.247,158.035,76.26,30.81,19.46,81.7,66.98,14.72,52.29,86.91,63.86,14.48,59.61,69.78,2,2,23/2/2026 12:21
59,4,35.89,35.83,61,81,96,94,0.525,-1.479,-1.566,-0.393,1.49,-0.427,96.822,-247.546,76.768,121.01,69.811,209.865,44.39,64.04,53.45,27.65,52.9,83.87,12.96,86.54,75.89,56.16,12.27,40.19,2,2,23/2/2026 12:22
60,4,36.17,37.25,84,71,94,100,0.779,1.403,1.463,-1.457,-0.563,-1.956,143.518,-135,-184.458,-180.609,-60.949,-172.743,17.87,39.78,15.14,29.58,61.04,79.42,88.62,69.11,11.62,69.24,54.51,68.31,2,2,23/2/2026 12:23
61,5,36.87,36.73,88,60,98,98,-0.547,-0.853,1.57,-1.662,0.904,0.47,24.759,-1.976,-78.347,143.255,-101.4,25.78,13.98,46.7,66.56,41.63,58.91,35.86,78.95,86.59,64.94,37.45,35.06,13.29,2,2,23/2/2026 12:24
62,5,36.75,36.07,71,107,97,98,0.77,-1.152,1.117,0.891,0.028,-1.337,155.007,196.554,21.311,-221.961,248.07,-216.552,16.4,44.13,25.19,81.02,70.31,87.45,60.87,69.05,71.88,35.64,70.03,74.05,2,2,23/2/2026 12:25
63,5,37.47,36.49,100,110,99,100,-1.297,0.928,1.255,-1.678,-1.013,0.667,30.836,-167.316,-157.521,214.747,-99.771,88.395,32.4,49.57,89.03,35.81,28.72,29.01,34.85,85.36,50.68,27.13,88.99,85.33,2,2,23/2/2026 12:26
64,5,36.97,37.12,100,99,95,100,1.394,-0.021,0.368,1.347,-1.395,1.36,175.978,138.356,-244.148,-194.871,-77.477,132.776,84.88,78.43,13.24,38.19,46.34,62.5,28.81,82.09,80.98,49.31,29.57,23.67,2,2,23/2/2026 12:27
65,5,37.15,35.53,67,77,97,94,-1.999,0.86,-1.329,-0.164,-0.485,-0.709,-210.329,-86.698,-230.51,-207.589,232.196,-65.496,74.55,26.33,18.07,71.05,12.8,46.56,72.14,88.56,54.69,83.95,50.04,89.86,2,2,23/2/2026 12:28
66,5,35.94,35.55,84,84,95,96,1.453,-0.446,1.631,-1.163,-0.165,-0.925,-73.73,82.035,-219.722,-63.304,93.45,180.312,14.5,47.06,23.52,56.45,42.5,85.27,14.6,79.65,23.76,45.79,42.68,74.71,2,2,23/2/2026 12:29
67,5,36.35,36.05,71,108,100,99,-1.169,-0.111,1.902,1.638,0.865,-1.746,-157.004,48.678,95.648,-224.055,-226.633,96.421,75.17,17.89,38.09,80.15,24.77,80.79,39.69,54.81,43.25,66.84,38.25,58.77,2,2,23/2/2026 12:30
68,5,35.87,36.39,97,85,96,99,1.804,-0.781,1.311,0.931,-0.673,-0.211,-153.924,-170.247,-239.207,-203.574,-64.3,148.961,41.35,75.99,35.81,50.26,36.44,85.44,67.09,43.32,66.77,52.96,26.98,25.14,2,2,23/2/2026 12:31
69,5,37.41,35.59,69,108,98,95,-1.518,0.364,-0.97,-0.552,0.353,0.996,-24.657,-35.1,-55.825,229.479,160.482,-113.067,44.45,82.8,16.96,62.5,34.05,35.21,60.75,37.64,62.73,14.78,23.27,89.36,2,2,23/2/2026 12:32
70,5,35.98,37.46,82,63,97,99,0.051,-1.814,0.226,1.877,0.469,-1.125,-80.239,79.074,-125.871,149.01,178.387,169.295,63.38,75.13,36.21,35.14,76.19,70.08,61.31,40.9,79.48,76.04,31.31,70.16,2,2,23/2/2026 12:33
71,5,36.19,36.56,93,102,95,97,-0.909,-0.552,1.419,-0.949,-1.412,-1.466,-178.385,-121.959,115.115,120.792,-91.999,145.886,30.49,34.48,18.71,55.93,86.85,28.63,19.05,80.3,28.26,46.1,70.85,33.72,2,2,23/2/2026 12:34
72,5,36.5,37.34,109,79,97,98,-0.748,-1.903,-0.196,-0.624,0.825,1.232,153.185,29.964,-27.614,174.014,-140.872,-82.624,12.2,71.96,64.61,82.91,43.65,15.57,13.79,73.62,52.83,37.92,20.02,55.22,2,2,23/2/2026 12:35
73,5,37.45,36.52,90,73,97,94,-1.648,1.097,1.124,0.658,0.378,-1.08,-63.12,-138.89,-246.878,-136.964,-98.258,62.819,34.58,82.56,65.68,25.61,62.53,65.13,63.05,54.84,61.13,66.77,60.85,22.4,2,2,23/2/2026 12:36
74,5,35.85,36.84,90,75,94,100,-0.878,-0.07,1.871,1.662,-1.293,-0.158,62.314,207.898,-46.527,-84.742,243.569,-197.038,41.78,40.41,29.8,38.21,34.64,43.84,64.15,52.51,68.29,72.92,39.99,86.65,2,2,23/2/2026 12:37
75,5,36.35,36.25,89,83,98,100,-1.583,1.18,0.983,-0.376,0.646,-1.444,-74.77,-74.081,153.255,171.912,8.874,217.188,21.12,40.97,45.03,62.65,70.58,53.74,27.9,33.8,21.64,71.86,31.41,18.28,2,2,23/2/2026 12:38
76,6,37.42,36.11,71,76,99,96,-0.904,1.336,0.616,-1.567,-0.992,-1.695,-67.708,59.822,137.944,217.625,232.944,-86.591,44.36,75.34,56.96,31.6,56.41,22.85,48.66,13.15,41.94,88.84,30.85,65.57,2,2,23/2/2026 12:39
77,6,36.11,37.11,76,66,98,99,0.721,1.01,-0.709,0.668,-1.218,1.34,114.598,23.958,-193.957,-81.202,-46.166,-190.112,33.55,26.23,49.37,25.15,60.69,63.96,44.62,77.45,82.89,28.82,28.95,29.51,2,2,23/2/2026 12:40
78,6,37.1,36.67,65,90,97,97,1.258,1.265,1.556,-0.937,-1.225,1.738,121.354,-215.851,50.288,-170.827,-11.592,76.587,39.58,21.99,89.05,40.67,30.02,75.21,55.32,49.87,88.26,31.29,50.66,66.32,2,2,23/2/2026 12:41
79,6,35.9,36.98,69,82,97,98,0.346,1.969,-1.299,0.343,-1.418,1.687,118.085,107.323,-169.655,230.379,-193.739,-15.839,45.76,57.42,70.77,19.03,78.55,59.54,68.06,86.12,58.66,83.47,28.12,53.62,2,2,23/2/2026 12:42
80,6,36.04,37.26,63,67,94,99,0.125,1.691,0.264,-0.25,-1.391,1.467,59.154,-219.569,-56.317,-169.512,34.11,-4.801,20.81,22.68,22.48,67.42,49.96,59.22,57.94,16.84,20.65,15.13,89.93,53.75,2,2,23/2/2026 12:43
81,6,36.13,36.66,78,92,96,96,0.532,0.141,-0.667,-0.98,0.412,-1.691,-58.955,184.991,60.717,-153.656,102.984,-182.466,85.44,75.79,33.38,74.45,72.38,37.41,34.61,83.86,35.84,53.17,32.39,48.01,2,2,23/2/2026 12:44
82,6,37.27,35.85,94,64,99,97,-0.835,1.212,1.682,0.706,1.369,1.04,224.274,-172.125,-145.095,-117.868,-217.084,-89.657,20.21,56.68,86.91,60.36,81.85,29.25,50.82,41.32,22.62,40.11,16.79,59.76,2,2,23/2/2026 12:45
83,6,36.01,36.44,80,69,98,100,-1.276,1.183,-0.432,1.51,-0.137,1.349,-116.111,-55.394,207.777,141.196,170.074,185.525,72.97,75.86,46.41,34.33,30.04,58.34,66.25,26.56,14.18,77.85,85.02,31.56,2,2,23/2/2026 12:46
84,6,35.9,36.62,86,102,98,96,0.514,-1.681,1.871,-1.343,0.052,-0.425,92.066,24.251,-175.382,227.487,65.735,-162.226,51.2,59.8,38.93,38.67,36.18,35.32,48.45,38.72,87.02,50.36,53.65,11.33,2,2,23/2/2026 12:47
85,6,35.61,36.46,61,73,94,100,-0.498,0.548,-1.623,-0.936,-0.033,0.9,220.418,21.713,-153.021,248.779,12.733,108.859,58.72,56.69,36.01,11.92,66.7,73.46,55.06,17.28,57.87,60.99,70.89,26.4,2,2,23/2/2026 12:48
86,6,36.65,35.59,109,92,100,96,-0.765,-1.197,-1.087,0.467,-1.678,1.42,-76.562,38.124,-227.636,-102.337,45.014,-110.96,10.56,19.61,23.33,84.87,12.31,80.56,62.27,63.66,48.18,57.01,23.69,66.63,2,2,23/2/2026 12:49
87,6,37.47,36.9,94,93,94,98,0.244,1.003,0.473,-0.258,-0.451,1.842,-15.853,-199.9,-170.516,-215.838,9.233,-135.94,15.83,70.64,20.39,72.66,84.29,76.56,79.95,18.95,51.87,15.91,24.26,15.21,2,2,23/2/2026 12:50
88,6,36.32,35.65,108,108,100,99,0.762,-1.666,-1.308,0.216,-1.787,-0.457,58.406,16.796,-9.553,-205.69,-179.034,165.839,84.16,88.47,34.72,79.95,87.9,68.72,75.25,57.63,81.51,55.45,59.95,29.18,2,3,23/2/2026 12:51
89,6,35.89,35.79,83,80,99,98,-1.145,1.246,0.186,1.904,-1.988,-0.624,-61.205,145.377,-119.878,-22.691,-8.428,-242.496,54.89,81.24,45.25,40.64,15.59,56.21,26.7,82.92,38.33,13.86,53.46,78.02,2,2,23/2/2026 12:52
90,6,36.43,36.98,110,94,99,98,0.009,-0.392,1.134,1.582,-0.095,-0.281,-135.157,-71.748,10.777,248.835,-63.916,-134.331,44.19,49.5,12.68,13.53,52.63,43.16,25.27,25.04,44.98,24.14,36.56,20.05,2,2,23/2/2026 12:53
91,7,36.87,35.7,95,93,94,97,-1.59,0.312,-0.279,-0.213,0.929,-1.219,70.595,3.469,-100.047,-18.179,-13.864,-126.998,69.15,35.23,71.21,78.33,18.83,59.46,48.94,16.13,62.17,36.68,29.14,56.58,2,2,23/2/2026 12:54
92,7,36.34,35.75,99,62,94,94,-0.824,0.803,0.984,1.22,0.065,1.195,51.179,-189.593,-46.875,216.944,137.286,-11.51,26.17,10.61,60.85,46.26,58.86,31.72,19.57,63.51,65.91,64.33,54.36,84.59,2,2,23/2/2026 12:55
93,7,36.26,37.12,88,95,96,100,1.102,-0.312,-0.103,0.126,-1.192,0.889,-79.71,-168.726,143.757,-116.814,130.393,-75.277,16.58,64.9,20.37,79.09,84.21,85.54,62.62,83.12,22.73,56.57,64.67,80.9,2,3,23/2/2026 12:56
94,7,36.24,37.17,87,90,94,95,-0.573,0.398,-1.398,-0.255,0.347,1.665,116.182,-172.372,-199.957,-225.062,-228.605,-24.285,53.52,86.51,30.26,55.53,43.09,65.59,89.12,23.95,27,61.23,82.79,84.14,2,2,23/2/2026 12:57
95,7,36.46,35.76,94,105,95,96,-0.158,-1.195,-0.31,0.357,-1.328,1.21,64.599,-236.063,-35.3,-25.165,109.353,-70.91,23.34,42.53,67.49,77.27,62.32,16.65,58.09,38.49,60.18,53.48,13.36,33.62,2,2,23/2/2026 12:58
96,7,36.31,35.7,86,93,97,95,-0.789,-0.655,-1.217,1.018,-1.908,0.057,-185.363,-102.298,139.491,103.29,-37.803,93.792,50.49,21.95,17.4,20.88,63.22,34.32,38.27,62.52,68.88,62.06,11.52,39.84,2,2,23/2/2026 12:59
97,7,37.13,35.91,85,101,94,98,1.354,-1.165,0.509,-0.759,1.152,1.109,-43.108,-186.523,-246.156,-56.429,-25.356,-173.99,45.29,57.15,25.17,21.8,80.3,52.22,79.31,17.5,56.55,61.32,60.8,11.88,2,2,23/2/2026 13:00
98,7,36.56,35.62,84,94,96,96,-1.167,-1.798,0.413,-0.538,1.549,-0.642,-117.553,-53.59,80.336,186.354,-231.159,-75.683,65.65,25.82,76.89,67.21,46.93,72.2,36.27,13.83,59.4,24.68,25.27,21.16,2,2,23/2/2026 13:01
99,7,35.69,35.64,103,94,96,98,0.586,-0.413,-1.678,0.297,-1.181,-0.495,-130.283,-123.846,33.662,-63.583,189.252,-133.014,73.25,35.68,57.44,69.55,65.36,58.31,82.63,86,51.92,21.61,72.93,55.89,2,3,23/2/2026 13:02
100,7,36.85,36.19,81,91,95,98,-0.462,0.952,-0.156,1.539,-1.881,0.351,-168.823,-126.914,24.809,159.837,-37.961,60.977,57.54,44.95,10.45,50.57,37.12,18.29,62.92,21.64,15.45,23.91,80.78,29.54,2,2,23/2/2026 13:03
101,7,35.82,36.55,73,61,99,95,-1.787,1.896,-1.366,-0.52,-0.815,-1.681,-237.816,249.123,-164.718,5.891,236.901,-235.565,46.43,52.56,11.11,73.54,74.55,10.19,20.42,65.83,27.01,65.44,85.08,32.85,2,2,23/2/2026 13:04
102,7,36.43,36.23,89,80,94,100,-1.35,-1.844,-1.927,-0.118,0.888,-1.322,-212.12,-173.055,-192.851,-117.224,-91.847,242.241,29.89,42.19,89.25,48.96,57.4,74.21,14.14,45.57,80.48,14.71,17.91,49.31,2,2,23/2/2026 13:05
103,7,36.15,36.68,73,99,98,96,0.797,1.777,-1.771,1.821,-0.188,1.341,-62.389,83.211,-211.13,112.155,-229.341,20.88,20.73,31.43,18.56,22.69,48.53,62.49,65.46,65.9,39.32,14.71,17.92,88.03,2,2,23/2/2026 13:06
104,7,35.69,36.14,102,106,97,98,0.93,0.138,-1.69,0.583,-1.353,-0.48,-225.043,76.508,224.959,-228.158,-154.932,-77.235,49.68,59.97,56.68,46.32,64.26,79.86,27.7,20.1,48.1,78.53,20.27,32.67,2,2,23/2/2026 13:07
105,7,35.53,35.77,109,73,95,99,-0.784,1.217,0.063,-0.167,1.357,0.989,166.858,134.015,114.685,240.433,71.021,-45.015,42.62,67.94,47.47,76.83,40.36,86.81,45.66,71.58,50.7,29.3,76.38,11.12,2,2,23/2/2026 13:08
106,8,35.54,36.73,91,94,97,96,0.414,1.962,0.412,-1.378,1.259,1.242,-209.179,-128.928,167.585,-134.947,-229.397,169.911,84.45,81.42,24.49,17.7,89.75,61.87,38.27,70.78,47.78,48.83,20.6,34.46,2,2,23/2/2026 13:09
107,8,37.29,35.9,75,70,94,99,-0.647,-0.68,-0.448,1.944,-1.887,0.495,150.178,125.216,207.937,-27.686,-83.1,-196.925,45.14,35.94,50.32,49.03,51.38,44.3,84.3,57.15,77.14,57.29,44.08,49.7,2,2,23/2/2026 13:10
108,8,35.78,36.49,72,84,97,99,-1.5,0.357,-1.655,0.713,-0.782,0.858,40.137,58.9,142.017,-113.333,-121.382,-37.354,87.95,70.48,16.99,62.18,50.75,72.75,78.51,61.8,51.78,79.61,81.55,69.77,2,3,23/2/2026 13:11
109,8,36.6,36.42,95,89,99,98,-0.302,-1.153,0.039,0.721,-0.738,-1.756,-29.533,-29.889,-58.567,-152.9,-237.146,-183.07,87.38,12.71,65.63,68.89,30.73,38.69,56.53,19.59,53.17,67.41,61.65,85.42,2,2,23/2/2026 13:12
110,8,35.58,37.07,104,62,98,98,-1.817,0.701,0.211,-0.36,1.811,0.733,14.928,92.189,22.648,128.469,166.26,-166.501,35.91,80.04,55.16,13.58,53.35,86.07,67.86,30.53,80,38.96,74.99,43.15,2,2,23/2/2026 13:13
111,8,36.53,36.25,108,86,96,99,-0.027,1.321,-1.86,-1.412,-1.081,-0.383,42.284,-211.926,-19.777,-67.169,219.091,206.244,28.27,61.97,44.52,75.03,65.16,70.29,14.91,13.61,17.08,39.34,27.47,68.22,2,2,23/2/2026 13:14
112,8,36.05,37.42,93,87,95,99,-0.244,0.338,1.635,-1.813,-0.453,0.496,-235.385,-67.912,161.386,117.956,121.201,-25.268,50.79,75.99,39.16,27.97,87.41,17.34,61.83,10.34,44.04,30.1,58.56,79.5,2,2,23/2/2026 13:15
113,8,35.77,36.35,95,99,96,94,1.855,-0.522,0.499,-0.746,-0.961,-1.582,-101.729,-115.797,210.972,201.997,-95.315,-17.897,55.59,53.82,78.19,84.45,67.08,67.1,70.92,64.95,69.08,66.72,43.78,17.22,2,3,23/2/2026 13:16
114,8,36.41,36.23,68,71,99,100,0.387,1.31,-1.917,-1.039,0.458,-0.574,-106.81,-224.406,49.6,-191.757,-99.522,15.79,59.15,34.52,12.05,73.46,84.52,38.16,18.76,89.03,56.54,29.11,33.4,34.4,2,2,23/2/2026 13:17
115,8,36.25,35.66,73,91,97,100,-0.047,1.786,-0.825,-0.212,-0.396,0.142,4.44,-209.747,239.842,-17.626,156.384,-93.754,39.78,29.81,28.26,16.62,44.44,83.57,76.17,76.26,88.25,17.5,29.94,80.55,2,2,23/2/2026 13:18
116,8,36.56,37.23,74,93,97,100,0.426,-0.866,1.571,0.82,-1.89,-1.101,166.752,-19.102,227.55,242.143,-209.667,25.122,68.92,38.55,29.97,55.69,61,41.5,58.55,57.19,73.46,34.35,57.47,42.26,2,2,23/2/2026 13:19
117,8,36.64,36.18,108,82,94,95,-1.65,-0.418,1.236,-0.991,-0.99,-0.354,-142.124,-9.975,248.424,-111.668,-216.786,-240.825,74.3,15.68,59.97,82.2,89.95,78.65,53.01,49.74,10.96,17.28,55.8,57.93,2,2,23/2/2026 13:20
118,8,36.14,36.96,102,76,94,100,-0.866,-1.848,0.218,0.738,0.635,1.73,-104.847,162.19,-225.752,-122.406,-140.056,6.495,27.38,82.79,81.14,35.09,56.47,12.68,51.64,59.27,86.11,51.64,81.05,80.97,2,2,23/2/2026 13:21
119,8,36.58,37.35,90,62,99,96,0.744,-1.881,0.137,-1.697,-1.183,0.201,235.892,-61.628,90.348,-111.714,76.057,243.16,67.27,20.76,47.31,13.92,50.25,21.8,89.86,25.39,23.43,26.56,15.49,28.5,2,2,23/2/2026 13:22
120,8,35.79,36.76,60,64,99,95,-0.636,0.611,-1.449,0.561,1.494,1.088,205.326,14.75,63.383,-176.656,-174.14,-66.147,19.12,40.99,25.38,26.16,46.71,16.39,13.39,22.05,82.38,36.47,79.94,47.82,2,2,23/2/2026 13:23
121,9,35.61,36.4,70,100,96,97,1.523,0.953,-1.463,-0.095,1.124,-1.258,-209.036,-29.555,-169.954,235.67,179.204,-220.163,17.48,58.74,35.94,44.03,68.9,77.34,29.59,52.37,77.77,34.71,15.78,74.92,2,2,23/2/2026 13:24
122,9,36.08,35.6,101,105,98,98,-0.298,0.474,1.368,-1.626,0.876,-1.539,155.338,-179.741,128.232,-80.209,-216.463,-41.213,48.51,38.36,15.41,42.17,30.33,37.63,87.25,87.92,13.6,20.79,73.52,73.46,2,2,23/2/2026 13:25
123,9,35.85,35.63,98,109,99,95,-0.347,-1.341,-1.98,0.516,-1.355,1.007,-54.244,-83.547,71.863,-111.149,131.202,-104.283,13.25,61.92,40.94,16.28,44.85,46.14,18.35,64.58,44.43,69.09,26.15,38.93,2,2,23/2/2026 13:26
124,9,36.19,37.24,84,74,95,97,-0.937,0.225,1.986,-0.159,0.679,1.993,-36.188,56.155,-87.752,-231.837,249.158,137.968,34.55,25.9,57.85,75.5,36.38,69.49,60.97,25.62,13.66,25.13,70.18,82.56,2,2,23/2/2026 13:27
125,9,37.46,36.12,91,108,99,97,1.898,0.515,0.901,0.297,-1.315,-1.454,180.87,-75.631,-66.583,-112.013,-246.856,-8.48,18.05,40.98,67.07,29.19,45.92,56.2,27.92,33.46,40.42,40.16,59.4,24.98,2,2,23/2/2026 13:28
126,9,36.93,37.21,96,98,97,95,1.965,-1.079,0.869,-0.652,1.206,-1.891,-102.637,118.07,137.344,-73.907,152.418,58.759,52.24,75,72.1,85.7,64.79,66.77,39.71,76.69,70.24,77.37,36.3,24.54,2,3,23/2/2026 13:29
127,9,35.55,36.5,89,77,95,96,0.843,-0.394,-0.892,-0.633,0.682,1.424,174.986,129.939,-220.235,185.139,152.518,142.304,56.45,28.57,40.01,36.55,53.18,53.72,43.26,71.17,78.89,18.77,45.73,82,2,2,23/2/2026 13:30
128,9,36.9,37.35,80,87,99,95,-0.47,-1.512,1.173,0.446,-1.875,-1.295,145.155,36.388,-197.734,-23.462,-102.17,246.158,44.55,55.39,57.07,33.44,12.56,79.94,84.05,19.68,16.92,82.68,30.31,66.98,2,2,23/2/2026 13:31
129,9,35.97,35.85,109,83,95,97,-1.149,-0.778,-1.616,0.814,-0.371,-0.323,0.778,50.476,-74.82,-40.405,-221.01,227.016,47.82,75.88,50.42,81.14,87.17,74.55,85.49,20.15,46.41,49.43,77.68,56.22,2,3,23/2/2026 13:32
130,9,36.83,35.69,82,63,98,100,1.77,0.899,1.321,-0.264,-1.366,-1.009,-202.545,-232.741,241.464,-76.775,-18.376,-149.383,76.08,67.45,80.12,81.36,38.1,49.55,14.16,54.27,73.64,52.31,31.58,46.76,2,2,23/2/2026 13:33
131,9,37.08,36.61,68,65,99,95,-1.866,1.877,-1.803,-0.51,-1.823,-0.522,-25.509,245.247,-166.129,-137.015,-225.709,-34.907,67.87,58.16,20.97,75.29,10.42,41.26,44.08,16.14,77.34,14.25,42.66,33.89,2,2,23/2/2026 13:34
132,9,36.49,36.92,105,87,100,97,1.892,-0.303,0.373,0.627,-1.466,-1.35,-94.966,220.397,-150.257,-174.873,-34.476,-188.526,86.64,35.3,74.14,47.39,45.59,12.18,39.18,81.29,23.24,17.02,87.73,24.07,2,2,23/2/2026 13:35
133,9,36.24,35.66,99,106,95,96,-1.171,0.771,1.724,1.847,0.996,-0.166,-197.15,87.3,225.536,37.909,16.355,-23.986,62.21,43.31,51.38,55.08,25.95,85.07,71.63,44.65,60.77,58.92,35.39,26.62,2,2,23/2/2026 13:36
134,9,36.35,36.04,96,109,97,96,0.478,1.663,1.209,-0.159,0.138,0.818,-23.695,-220.818,-123.001,66.292,16.912,-7.8,19.54,43.99,86.35,70.4,27.97,62.57,64.4,25.22,37.84,13.39,26.26,45.5,2,2,23/2/2026 13:37
135,9,35.68,37.37,66,107,96,96,0.076,-0.147,0.038,0.409,0.983,-0.125,18.567,242.131,232.367,5.663,-232.841,110.081,83.75,31.78,43.54,18.93,36.9,37.95,26.72,28.83,65,13.81,44.35,81.18,2,2,23/2/2026 13:38
136,10,35.98,36.23,91,101,95,99,-1.414,1.151,-0.769,-0.285,-0.426,0.906,-133.238,-104.841,-10.66,163.157,235.783,54.059,79.07,19.67,51.73,75.49,69.6,73.37,72.69,10.18,79.62,85.36,67.58,79.31,3,3,23/2/2026 13:39
137,10,37.03,35.58,73,88,98,100,-0.227,-1.116,-1.294,1.477,-1.331,1.157,76.271,-113.606,-180.842,-181.876,143.368,121.371,77.26,47.28,26.88,34.21,83.89,15.21,28.98,56.89,26.9,87.21,50.74,43.56,3,2,23/2/2026 13:40
138,10,36.73,37.43,70,91,95,95,-0.978,-0.811,-0.741,-0.378,-1.239,-0.852,63.246,107.746,-146.201,-117.569,-105.787,38.677,66.53,60.21,88.58,29.14,44.05,25.07,17.34,27.21,50.32,21.8,21.83,89.02,3,2,23/2/2026 13:41
139,10,37.36,37.17,93,81,100,96,-0.025,-1.669,-1.39,0.12,-0.256,-1.749,49.391,8.969,177.923,117.665,-11.687,-242.562,80.97,33.67,36.9,31.01,26.52,49.04,19.97,56.11,81.79,69.99,30.8,22.45,3,2,23/2/2026 13:42
140,10,36.41,36.18,76,69,97,98,0.711,0.982,1.508,1.08,-0.623,0.85,244.912,-90.863,-64.571,63.907,149.83,-105.261,79.72,20.05,40.91,40.38,23.79,45.41,41.08,24,89.59,87.58,54.97,33.37,3,2,23/2/2026 13:43
141,10,35.57,35.81,71,102,100,99,0.385,1.639,-1.021,0.927,-0.274,-1.773,53.895,194.444,31.381,211.426,8.628,-183.735,61.25,24.46,61.65,83.15,62.34,27.54,62.54,82.65,59.27,38.96,70.65,33.34,3,2,23/2/2026 13:44
142,10,36.13,36.11,110,74,97,98,0.344,0.312,1.026,-1.136,-0.463,0.081,-51.955,66.543,-223.704,-28.696,-201.136,-227.983,77.56,38.26,59.86,34.19,25.73,89.04,59.88,70.11,77.95,76.37,11.85,54.93,3,2,23/2/2026 13:45
143,10,37.48,36.49,97,64,97,96,0.467,0.047,-1.388,0.941,-1.457,-0.18,69.377,-73.094,30.764,79.221,156.292,75.239,58.26,43.31,47.33,86.22,35.02,62.55,42.98,76.18,57.26,29.3,43.06,57.55,3,2,23/2/2026 13:46
144,10,35.86,35.64,87,78,95,100,-0.523,0.256,-1.749,-1.07,1.89,1.996,151.24,152.068,-207.926,110.393,-57.195,-164.413,54.2,54.27,86.95,56.75,23.05,24.03,73.7,53,41.6,78.71,45.3,28.87,3,2,23/2/2026 13:47
145,10,36.26,36.35,75,64,94,100,0.322,-0.833,1.47,0.36,-1.662,-0.083,53.889,98.795,177.448,126.96,-87.744,-165.616,25.24,82.89,27.03,70.93,22.41,86.38,43.44,16.66,70.11,46.61,19.57,57.26,3,2,23/2/2026 13:48
146,10,36.94,35.85,68,70,97,95,1.338,-0.701,-1.466,1.096,-0.089,-0.379,-164.773,-122.735,-178.088,176.183,26.732,-139.355,33.06,50.38,33.82,74.55,80.3,19.92,28.54,18.42,52.36,52.01,57.6,87.13,3,2,23/2/2026 13:49
147,10,36.32,36.28,74,60,99,95,0.613,0.568,0.436,1.35,-0.212,-1.679,165.573,72.272,-189.762,-235.806,-6.037,-34.707,23.32,30.68,81.22,76.15,31.1,76.48,75.28,49.64,63.38,72.12,69.71,25.88,3,2,23/2/2026 13:50
148,10,36.91,36.42,101,73,94,97,1.571,-0.409,-1.602,1.035,-1.7,-1.666,72.122,-110.533,-114.445,248.888,-31.105,116.877,59.78,84.75,28.71,79.71,16.91,17.4,11.03,23.66,83.3,87.18,26.38,58.79,3,2,23/2/2026 13:51
149,10,35.66,36.21,79,67,95,97,0.304,-0.091,-1.012,1.988,-1.157,1.117,42.78,-249.972,239.972,-117.163,65.152,243.487,32.97,59.54,46.43,40.08,30.29,61.7,19.29,41.17,55.99,21.55,32.88,41.89,3,2,23/2/2026 13:52
150,10,35.53,37.32,66,110,96,96,0.97,0.025,0.96,-0.79,-0.128,-1.61,236.001,116.258,96.846,188.31,-146.018,-180.491,12.13,74.36,19.13,80.21,17.77,15.54,71.2,62.5,18,89.63,40.88,73.41,3,2,23/2/2026 13:53
151,11,36.39,36.4,92,97,97,100,1.634,-1.219,-1.112,0.008,0.299,-1.126,68.213,221.918,13.666,89.944,-124.592,204.612,55.71,34.84,23.49,34.45,54.58,33.34,24.1,27.33,18.57,44.57,43.19,29.44,2,2,23/2/2026 13:54
152,11,35.88,36.2,109,69,97,95,-0.724,1.197,1.641,-0.337,0.568,1.99,35.652,55.357,-201.04,124.698,0.701,142.833,48.16,34.71,82.54,43.56,79.59,32.2,60.32,53.33,17.67,21.41,65.02,72.85,2,2,23/2/2026 13:55
153,11,36.85,37.19,74,74,94,96,0.88,-1.455,-1.427,0.204,-1.1,-0.371,-112.201,138.072,-140.937,-144.809,239.279,140.311,45.22,19.57,86.29,13.95,24.87,24.36,69.24,82.53,61.4,61.33,82.13,33.14,2,2,23/2/2026 13:56
154,11,36.61,35.96,69,107,99,100,-1.979,0.166,0.674,1.141,-0.032,-0.829,101.853,-74.081,-208.317,-15.644,-103.125,-58.048,83.43,10.24,53.34,53.79,46.01,89.63,83.87,84.79,33.13,16.74,34.19,31.29,2,2,23/2/2026 13:57
155,11,35.85,37.42,90,108,98,96,1.224,-1.025,-1.646,-1.318,-1.332,-0.191,127.527,64.893,17.182,44.266,16.024,41.605,23.85,67.32,87.14,59.28,76.52,40.47,63.65,15.88,46.76,70.16,18.91,60.24,2,2,23/2/2026 13:58
156,11,36.4,36.54,61,90,99,97,-0.807,-0.882,-0.825,-1.18,0.632,-0.172,223.872,-62.701,-52.313,-116.534,-63.702,-164.199,86.22,50.67,55.69,32.83,31.95,71.85,52.35,42.15,24.33,86.58,50.94,50.13,2,2,23/2/2026 13:59
157,11,36.79,37.27,77,97,99,100,-1.465,-0.573,-0.188,0.315,-0.174,0.122,15.567,-76.149,163.025,-61.478,242.374,-103.235,77.61,75.41,53.06,62.52,54.11,30.78,52.53,30.14,26.44,82.88,56.1,47.54,2,2,23/2/2026 14:00
158,11,36.13,36.94,76,77,97,100,0.694,1.246,0.551,0.195,-0.69,-1.01,-183.362,70.67,-249.414,167.889,16.834,-139.496,44.39,14.13,67.33,55.33,54.17,56.85,75.86,59.81,81.76,56.22,69.28,61.54,2,2,23/2/2026 14:01
159,11,37.21,37.2,95,90,100,95,1.284,-0.604,0.682,-1.559,0.982,0.652,-227.106,6.976,-186.594,34.677,3.634,-177.124,24.33,68.2,73.01,36.24,21.12,67.91,63.85,12.24,50.52,69.59,76.14,85.05,2,2,23/2/2026 14:02
160,11,36.16,37.35,73,78,98,96,0.369,-0.555,-0.27,-1.935,-1.051,-0.525,-230.923,189.798,44.404,25.173,136.018,-157.484,79.36,15.47,67.69,71.87,61.92,20.07,10.68,39.82,33.44,57.65,59.52,12.69,2,2,23/2/2026 14:03
161,11,36.71,37.38,88,76,95,100,-0.479,-1.751,1.93,-0.618,-1.903,1.964,-151.069,83.928,-94.404,52.731,-29.083,-40.526,16.8,57.43,58.33,14.61,18.38,37.29,15.81,44.15,10.86,31.14,47.28,75.35,2,2,23/2/2026 14:04
162,11,36.64,36.54,75,80,94,100,1.809,0.245,0.008,-0.665,1.05,0.095,4.55,-189.543,1.058,-12.983,-222.23,-71.229,11.13,47.81,66.26,39.22,67.02,30.9,43.37,30.38,24.67,87.61,31.01,61.81,2,2,23/2/2026 14:05
163,11,36.25,35.8,69,87,99,94,-1.448,-0.29,1.127,0.847,-1.207,0.074,217.164,67.446,169.862,154.873,226.813,125.652,15.99,15.21,55.62,35.38,25.29,35.49,71.17,18.16,39.13,68.23,54.23,32.35,2,2,23/2/2026 14:06
164,11,36.49,36.44,87,93,94,97,0.831,-1.908,1.777,-1.464,1.395,-0.677,41.466,9.385,-162.314,219.7,-124.602,97.64,74.65,87.06,11.01,79.45,19.01,23.67,43.43,75.3,22.87,83.92,73.96,35.91,2,2,23/2/2026 14:07
165,11,35.8,37.2,97,91,99,97,1.09,0.372,1.612,-0.402,0.912,-1.935,-78.815,193.011,-74.568,151.068,47.826,-205.631,29.18,67.32,35.95,52.61,82.13,33.87,36.35,17.72,61.14,84.54,53.04,46.64,2,2,23/2/2026 14:08
166,12,37.04,35.78,104,60,99,97,1.682,-0.508,-1.196,-0.742,-1.934,-0.674,-121.086,-8.575,-229.071,150.172,146.205,210.003,70.57,57.25,71.83,30.67,57.24,41.37,39.37,11.92,39.85,16.3,64.58,88.08,2,2,23/2/2026 14:09
167,12,37.02,36.41,75,89,95,99,-1.283,-0.29,0.698,1.179,-1.507,0.252,-127.604,139.784,-2.583,190.221,16.658,81.05,48.26,21.31,29.27,11.49,41.32,49.13,37.71,77.65,80.3,55.35,38.22,39.82,2,2,23/2/2026 14:10
168,12,36.9,36.48,66,60,96,98,1.404,0.618,1.603,0.413,0.191,-1.687,38.139,219.352,-150.735,189.991,-121.756,-222.172,77.57,43.7,45.91,16.36,53.37,43.9,30.84,17.71,39.1,58.25,48.01,51.03,2,2,23/2/2026 14:11
169,12,37.09,35.6,92,101,97,99,0.751,-1.423,0.787,1.551,-0.623,1.137,207.427,183.07,183.292,-95.497,-182.492,63.586,37.59,48.19,58.25,65.47,79.47,52.8,27.6,54.15,73.7,31.95,31.5,60.71,2,2,23/2/2026 14:12
170,12,36.61,35.84,66,75,95,98,1.851,0.398,1.828,0.448,1.967,-0.337,173.883,18.863,97.107,112.309,-182.981,200.649,73.99,46.26,77.39,30.23,39.91,77.47,68.93,39.13,64.45,82.76,70.2,17.31,2,2,23/2/2026 14:13
171,12,36.13,36.19,74,82,94,98,1.742,0.031,-0.123,0.034,-0.46,-1.089,120.745,-214.08,-225.63,-207.213,-20.953,68.758,11.92,23.64,31.72,73.58,75.75,46.33,63.62,24.63,13.81,53.62,51.54,70.19,2,2,23/2/2026 14:14
172,12,36.21,37.39,94,64,100,99,-1.313,1.605,0.115,-0.376,-1.103,-1.937,171.541,28.917,-225.428,128.166,-121.414,186.534,85.2,27.75,29.47,34.82,49.5,17.09,57.92,35.42,17.22,43.42,85.12,23.6,2,2,23/2/2026 14:15
173,12,36.94,37.09,98,110,99,94,0.271,-1.186,-1.145,-1.79,-0.109,-1.704,-227.937,-160.951,-52.957,-51.242,-183.894,178.051,21.57,82.15,70.91,25.1,28.5,18.61,38.13,20.37,30.15,64.6,12.76,50.18,2,2,23/2/2026 14:16
174,12,36.68,37.38,100,74,94,94,1.358,1.773,-1.426,0.84,1.64,0.556,128.879,-243.961,206.013,-162.204,-64.685,-36.195,48.37,10.22,80.99,60.02,31,76.5,32.72,17.1,72.38,14.7,72.11,64.53,2,2,23/2/2026 14:17
175,12,36.05,36.8,107,86,94,97,-1.507,0.601,0.875,0.136,-1.248,-0.885,-1.225,215.091,-28.58,-80.443,151.852,102.98,55.25,34.02,18.82,45.61,12.88,27.56,89.28,27.85,20.09,46.78,23,29.68,2,2,23/2/2026 14:18
176,12,36.69,36,110,76,99,94,-1.875,1.15,-0.195,1.122,1.96,-1.076,-103.206,-111.473,174.566,62.75,-14.812,206.283,28.11,53.86,42.82,82.9,41.1,78.8,86.93,17.33,66.4,74.02,33.15,51.41,2,2,23/2/2026 14:19
177,12,36.43,36,61,98,94,96,1.698,1.579,1.234,1.808,1.31,-0.237,-161.577,222.561,-103.002,229.36,-186.011,97.911,47.54,62.73,86,80.99,77.81,77.09,36.35,24.34,14.55,78.56,82.06,87.52,2,3,23/2/2026 14:20
178,12,37.49,35.63,102,95,98,97,-0.553,-0.037,-1.216,-1.006,-1.607,1.787,-179.965,-85.092,-217.238,85.041,6.933,146.563,44.95,83.41,84.51,41.07,78.29,52.36,47.48,29.37,35.42,40.01,56.35,54.06,2,2,23/2/2026 14:21
179,12,35.73,37.01,85,63,95,98,-1.05,-1.802,0.061,0.299,-1.379,-1.919,-162.032,72.454,-32.021,126.892,195.321,-135.789,32.01,76.66,69.85,67.75,57.98,69.76,24.1,15.99,42.39,53.15,69.89,64.46,2,2,23/2/2026 14:22
180,12,36.73,36.75,96,104,94,99,-1.381,-0.569,1.434,-1.615,-1.54,1.283,202.655,-79.792,-18.334,3.95,221.587,61.28,77.36,65.85,29.06,26.78,69.87,68.22,80.06,35.16,11.6,63.34,48.05,15.4,2,2,23/2/2026 14:23
181,13,35.65,37.04,80,100,95,98,1.174,0.522,1.895,-1.885,1.932,1.618,104.959,-82.771,189.26,239.292,-209.517,200.351,51.23,31.13,17.36,71.71,37.94,69.45,27.78,22.75,14.77,80.3,68.12,67.2,2,2,23/2/2026 14:24
182,13,35.94,36.19,94,68,96,99,-1.804,-0.215,-1.315,-0.724,-1.742,1.235,62.032,-202.506,-43.708,108.689,-123.914,-1.275,65.11,71.7,67.1,40.07,55.48,12.33,46.52,53.57,50.97,48.26,70.29,24.27,2,2,23/2/2026 14:25
183,13,36.21,37.22,76,104,94,97,-0.04,1.488,-0.758,-1.686,1.707,-1.541,121.785,249.039,197.46,-3.567,-9.033,220.528,65.46,84.76,75.02,35.05,29.86,34.59,57.9,34.38,80.72,37.41,48.8,29.73,2,2,23/2/2026 14:26
184,13,35.83,36.75,79,77,99,98,-0.021,1.887,1.294,0.789,1.53,-1.239,210.105,-143.847,-106.653,62.693,-113.042,144.035,71.83,27.36,75.25,73.99,58.18,66.02,22.62,43.73,50.57,25.53,66.96,60.33,2,2,23/2/2026 14:27
185,13,35.57,35.8,82,84,98,100,-1.618,-1.737,0.887,-0.954,-1.285,0.341,-146.125,196.777,-249.641,-152.038,-87.745,18.529,79.9,10.9,89.69,50.14,27.84,79.02,25.29,30.85,20.66,47.41,58.32,43.26,2,2,23/2/2026 14:28
186,13,36.2,36.88,62,65,99,98,0.288,0.935,-1.075,-0.979,0.713,1.214,-47.288,51.834,64.025,-218.162,249.796,164.541,36.95,88.21,19.08,32.73,31.87,19.61,50.45,65.03,60.68,56.02,71.73,45.01,2,2,23/2/2026 14:29
187,13,35.96,35.58,98,77,94,95,0.272,-0.107,-1.018,-1.386,-1.085,0.734,-249.97,-239.016,-96.398,214.837,96.582,-210.614,72.25,22.08,48.08,57.26,36.25,68.56,29.85,27.12,62.26,18.09,79.07,52.62,2,2,23/2/2026 14:30
188,13,36.44,35.98,66,70,96,96,1.841,1.932,0.607,0.633,-0.848,0.425,66.456,35.57,235.958,-7.432,-233.689,-157.919,39.74,85.33,82.16,50.29,85.33,28.97,74.5,43.99,70.36,41.73,77.25,27.33,2,2,23/2/2026 14:31
189,13,36.24,35.79,73,88,94,94,-0.787,-0.855,-0.323,-1.401,0.846,-1.054,110.226,-169.206,165.849,-141.553,-3.803,113.436,53.61,39.9,39.61,80.78,75.34,69.63,48.11,36.87,22.06,70.39,51.15,87.6,2,2,23/2/2026 14:32
190,13,36.5,37.49,68,65,100,98,0.903,1.758,0.39,-0.496,-0.766,-1.932,-247.716,119.961,-183.668,230.113,108.769,-219.331,21.94,78.1,32.94,61.98,34.94,15.71,45.84,17.99,17.57,50.68,21.6,25.2,2,2,23/2/2026 14:33
191,13,36.2,37.06,74,69,94,99,1.611,1.615,-1.935,0.213,1.018,-1.259,53.144,186.87,242.042,244.323,159.974,-104.757,83.93,40.44,14.09,49.15,17.71,75.53,10.31,41.48,13.46,65.99,38.91,41.38,2,2,23/2/2026 14:34
192,13,37.09,36.26,71,102,95,95,-0.857,1.234,0.775,-0.354,0.314,-1.521,-8.409,-200.633,-111.387,-125.659,99.962,220.25,23.91,41.35,18.42,33.87,48.46,11.61,41.32,45.85,63.95,24.75,45.23,52.8,2,2,23/2/2026 14:35
193,13,37.42,36.49,88,68,96,96,-0.672,0.682,1.792,-0.294,-1.052,-0.502,158.135,198.488,-30.177,-240.985,-50.064,-17.274,50.13,21.35,25.47,10.32,20.86,28.19,75.65,85.82,54.63,66.94,48.32,18.02,2,2,23/2/2026 14:36
194,13,37.44,36.57,66,104,96,98,1.948,-1.744,1.881,-1.192,-1.304,-1.87,-22.709,106.519,46.699,140.839,-74.955,-93.87,15.33,15.29,36.75,81.95,49.6,72.53,87.58,34.55,89.91,65.28,81.72,54.96,2,2,23/2/2026 14:37
195,13,35.78,36.8,80,80,96,96,0.464,-0.912,-1.832,0.596,0.094,-0.281,16.426,175.617,-223.335,36.675,-80.193,130.896,27.09,89.98,84.4,33.68,80.43,28.33,19.27,21.69,53.12,55.54,89.87,13.45,2,2,23/2/2026 14:38
196,14,37.01,35.95,86,105,100,99,-0.068,1.783,0.72,0.908,-1.945,1.488,166.878,221.381,74.159,223.588,-180.268,-222.281,32.74,80.37,88.59,59.44,46.99,87.82,52.46,54,27.25,89.67,27.76,89.44,2,3,23/2/2026 14:39
197,14,36.49,37.41,88,74,95,94,0.484,-0.034,1.32,0.016,-1.714,-1.394,197.03,183.94,-35.886,158.297,-71.563,-22.818,56.53,74.18,42.18,48.14,62.22,29.43,72.84,79,86.09,55.51,28.33,57.44,2,2,23/2/2026 14:40
198,14,36.08,36.7,76,84,98,98,-0.225,0.38,0.816,-0.515,-1.242,1.636,-212.214,-157.345,-63.482,116.755,205.42,160.606,74.25,74.46,87.69,35.26,18.02,56.29,16.45,35.35,54.31,40.27,14.53,86.86,2,2,23/2/2026 14:41
199,14,36.19,36.94,61,96,94,98,-1.173,1.354,-1.923,-1.437,-0.869,-0.392,17.962,47.552,-217.971,139.447,-81.512,80.966,63.27,69.49,29.03,86.23,15.62,56.41,78.75,58.81,76.15,18.48,54.68,55.88,2,2,23/2/2026 14:42
200,14,37.01,36.37,72,106,94,94,1.23,-0.34,0.843,-1.002,1.145,1.934,199.689,-79.647,-229.3,126.9,-133.043,-8.344,79.34,61.71,11.09,49.61,40.27,53.66,49.15,33.99,44.6,13.74,88.18,31.5,2,2,23/2/2026 14:43
201,14,36.72,36.5,85,74,94,94,-1.32,1.29,-1.485,0.473,1.389,-0.475,-62.749,-43.502,-106.731,-224.811,-82.613,-34.348,56.64,77.99,40.1,56,10.16,77.63,58.51,58.62,86.49,49.19,48.49,15.03,2,2,23/2/2026 14:44
202,14,36.6,36.07,105,63,94,100,-0.457,-1.922,-0.739,-0.001,0.159,0.552,61.534,125.167,210.784,-43.036,198.68,164.345,18.93,81.31,19.33,74.21,89.55,39.17,58.63,17.22,46.04,48.13,14.37,81.4,2,2,23/2/2026 14:45
203,14,37.3,37.37,109,94,95,94,-0.904,1.371,-0.531,-0.429,-1.481,-0.785,68.528,8.993,128.223,-82.834,-96.464,-13.241,26.64,42.88,74.33,29.32,70.69,65.18,20.1,72.54,49.09,54.03,61,70.09,2,2,23/2/2026 14:46
204,14,36.82,36.01,103,60,96,96,-1.839,-1.404,-0.043,-1.286,-1.154,1.253,187.75,91.487,-35.283,-249.429,-200.968,83.222,38.3,14.2,85.73,24.4,86.62,79.71,49.51,42.87,72.82,73.61,72.72,52.68,2,2,23/2/2026 14:47
205,14,37.06,36.5,95,109,100,94,-0.735,1.614,-0.263,-1.149,0.851,1.73,-82.112,-219.427,27.913,183.138,42.013,150.413,54.47,23.71,13.02,58.55,57.85,58.82,39.46,16.45,32.62,41.03,25.88,54.92,2,2,23/2/2026 14:48
206,14,36.01,37.17,100,68,99,99,-0.919,-1.552,-0.326,-0.276,0.575,1.654,-82.758,136.253,85.738,-115.001,-104.612,-150.56,41.7,38.11,88.25,15.92,52.3,36.09,77.45,80.73,54.23,76.86,20.3,85,2,2,23/2/2026 14:49
207,14,35.77,35.76,87,77,99,99,-0.978,-0.78,-1.066,0.575,0.872,0.227,229.655,-147.957,132.958,143.122,211.482,44.765,29.43,11.6,48.83,71.96,40.68,85.41,66.86,60.2,54.21,74.09,53.51,17.44,2,2,23/2/2026 14:50
208,14,36.43,37.16,63,99,94,99,-1.632,1.705,0.676,1.432,-1.601,1.903,-246.084,102.885,-127.822,-132.7,-113.979,241.957,14.06,80.9,55.35,13.58,35.13,46.08,24.36,11.03,32.82,50.4,89.58,28.21,2,2,23/2/2026 14:51
209,14,35.92,36.27,91,102,95,96,1.986,1.63,1.921,0.736,-1.322,-0.839,20.889,-36.27,109.204,169.145,-164.358,-200.648,19.57,33.42,47.76,33.19,15.94,40.5,26.87,83.76,56.58,39.36,13.79,63.26,2,2,23/2/2026 14:52
210,14,37.34,37.14,107,76,94,96,-0.418,-0.692,-0.223,1.495,0.977,0.772,-119.026,144.909,69.567,25.679,202.218,197.663,79.83,32.46,77.92,42.13,61.41,40.38,53.65,67.53,86.13,19.33,86.93,76.27,2,3,23/2/2026 14:53
211,15,35.64,37.45,63,98,100,99,0.752,0.337,0.95,-1.721,-0.471,1.585,-145.522,16.511,238.211,6.792,-17.128,-230.637,12.53,25.47,11.2,85.68,64.1,74.68,44.35,67.16,38.91,48.81,59.55,30.47,2,2,23/2/2026 14:54
212,15,36.66,37.05,98,71,94,97,-0.793,0.816,-0.975,-0.686,-0.896,0.69,236.579,-154.739,102.253,67.547,44.899,-2.009,45.27,11.8,35.29,52.05,10.72,40.84,51.69,30.61,51.19,64.76,41.94,53.35,2,2,23/2/2026 14:55
213,15,36.78,36.1,86,67,100,98,1.182,-1.096,0.934,-1.819,-0.939,-0.769,124.508,242.371,85.912,-178.11,-213.781,-245.851,53.91,77.75,83.54,37.6,74.77,29.63,41.79,75.87,87.81,53.5,25.44,20.05,2,2,23/2/2026 14:56
214,15,35.95,36.01,77,97,98,95,0.466,-0.916,1.279,-0.376,-1.737,-1.377,-22.56,-113.173,29.213,184.796,-153.664,103.211,46.71,14.28,46.64,40.36,80.82,77.63,45.83,51.25,66.46,43.81,43.74,32.87,2,2,23/2/2026 14:57
215,15,37.43,36.07,104,99,94,95,0.694,-0.941,-0.05,-1.798,-0.591,0.222,169.429,241.575,77.515,-48.742,186.145,123.529,70.52,10.32,24.7,33.25,75.41,45.33,20.55,15.52,73.49,58.63,83.29,33.33,2,2,23/2/2026 14:58
216,15,36.47,36.47,102,78,96,95,1.444,-0.383,0.9,0.436,-1.205,0.351,128.027,176.721,164.178,-52.619,168.947,-51.865,81.38,17.37,47.02,51.85,63.06,79.37,89,63.3,81.32,11.29,11.71,16.39,2,2,23/2/2026 14:59
217,15,36.17,37.14,95,95,96,98,1.786,0.876,1.697,-0.334,0.765,0.164,63.564,-158.577,-1.866,-154.012,209.648,218.545,71.26,46.98,84.28,28.81,82.81,67.24,39.35,80.77,68.58,77.6,89.53,67.32,2,3,23/2/2026 15:00
218,15,36.23,37.34,87,79,95,99,0.685,0.665,0.901,-0.016,1.655,0.965,-145.964,-28.601,141.951,193.199,-22.107,240.059,59.02,71.82,37.28,24.03,21.43,49.11,78.27,38.61,42.68,54.3,52.7,17.03,2,2,23/2/2026 15:01
219,15,37.32,36.56,79,107,100,95,0.576,1.347,-0.787,-1.712,-0.783,-1.636,-79.303,247.442,64.549,114.219,-116.293,70.668,17.43,26.1,25.12,75.67,72.91,59.22,56.16,33.68,30.67,46.67,38.83,43.61,2,2,23/2/2026 15:02
220,15,37.23,37.47,61,76,97,100,1.461,0.083,-0.169,1.676,0.873,-1.144,115.794,90.327,-32.305,-60.025,32.521,22.242,10.35,62.15,23.67,79.64,14.59,15.02,86.93,58.84,29.45,47.04,35.03,57,2,2,23/2/2026 15:03
221,15,36.81,36.89,66,69,100,95,0.226,0.759,1.239,-1.997,0.242,1.673,-218.71,140.966,204.891,201.13,-52.967,-123.378,52.76,19.57,14.98,33.65,75.75,36.25,34.07,69.19,14.46,67.46,43.11,32.5,2,2,23/2/2026 15:04
222,15,36.89,36.65,106,71,96,99,-0.607,0.177,1.258,-1.963,-1.021,1.22,46.64,-180.62,204.637,132.581,201.207,53.734,85.45,86.27,39.92,33.44,10.76,13.54,84.94,87.94,16.55,16.68,42.53,21.16,2,2,23/2/2026 15:05
223,15,36.84,35.71,95,85,99,98,1.642,-0.087,-1.542,-1.641,1.741,-0.047,173.038,237.083,201.747,-0.776,-195.505,-132.421,27.47,75.92,31.03,69.35,80.56,36.83,83.19,37.49,83.54,77.15,18.13,62.72,2,2,23/2/2026 15:06
224,15,36.56,35.9,101,96,94,100,0.631,-1.014,0.813,0.657,-0.335,1.549,-25.083,-126.531,81.577,105.602,-116.922,168.159,80.51,65.48,70.69,86.16,39.56,69.74,60.57,66.12,37.62,88.88,48.1,20.18,2,3,23/2/2026 15:07
225,15,35.71,36.49,66,97,96,98,-0.018,0.202,-1.121,-0.68,-1.207,1.032,-122.78,92.111,-247.458,147.259,59.289,132.835,82.54,52.7,76.56,10.46,32.86,16.25,80.98,68.7,61.61,76.93,10.69,60.45,2,2,23/2/2026 15:08
226,16,36.16,35.88,79,68,98,99,0.949,1.98,-1.469,1.672,1.791,1.547,69.714,143.641,-21.692,-238.742,-11.756,-203.594,35.94,35.05,31.16,45.75,13.87,69.08,64.96,61.76,50,52.49,53.83,53.69,2,2,23/2/2026 15:09
227,16,36.36,35.64,98,90,98,96,-1.911,-1.917,0.767,-0.344,0.849,1.989,-248.724,182.088,-156.236,-94.064,-0.443,45.723,76.34,23.12,85.9,82.45,32.38,77.15,38.37,67.08,25.74,15.14,72.38,28.71,2,2,23/2/2026 15:10
228,16,37.27,36.66,89,109,99,94,-0.242,1.016,-0.617,0.614,-1.115,0.864,-76.815,-123.593,-10.086,-36.158,28.135,-67.317,52.08,47.83,36.45,75.09,13.25,77.48,78.5,61.64,20.42,84.14,10.41,72.84,2,2,23/2/2026 15:11
229,16,35.65,37.13,63,75,100,95,-0.026,1.348,-0.702,-0.711,1.14,1.246,-92.839,38.401,-147.974,-216.384,81.665,-151.04,29.01,79.18,39.28,49.39,71.55,52.62,69.24,42.4,53.36,76.01,61.19,89.41,2,2,23/2/2026 15:12
230,16,37.37,37.27,60,63,96,98,1.332,-1.615,1.595,-1.76,-1.22,0.267,-238.456,4.042,79.523,-4.788,83.504,-120.787,20.46,62.54,26.38,34.64,30.46,20.19,61.96,60.34,82.51,14.71,68.25,58.93,2,2,23/2/2026 15:13
231,16,37.47,36.03,101,107,95,97,0.974,0.964,0.788,-1.024,0.796,0.831,154.098,8.987,220.467,57.092,-113.868,-241.336,33.24,88.62,88.77,60.89,38.89,27.89,59.28,43.96,83.37,60.35,77.33,70.41,2,3,23/2/2026 15:14
232,16,35.76,35.65,94,92,97,95,-0.443,-1.977,1.437,1.515,-0.656,-0.652,207.135,158.454,223.056,0.578,-144.417,-150.689,27.34,53.58,80.18,13.98,66.45,80,77.09,80.12,45.59,84.25,53.4,37.31,2,2,23/2/2026 15:15
233,16,35.59,37.02,71,86,100,95,-0.865,0.245,0.37,-1.292,0.127,-1.253,-238.522,67.926,-31.32,71.16,77.194,165.03,74.71,71.09,48.97,67.37,74.26,66.55,55.11,61.16,81.44,87.36,66.71,17.57,2,3,23/2/2026 15:16
234,16,35.72,37.25,63,88,94,100,-1.94,0.041,-1.607,1.029,1.994,-0.217,-7.146,-249.252,-180.55,-81.375,-141.348,-133.602,19.22,11.77,67.5,80.25,17.55,71.56,40.31,37.13,25.18,49.86,89.93,53.64,2,2,23/2/2026 15:17
235,16,36.43,36.78,107,72,95,98,0.463,0.972,-0.99,1.441,-0.778,0.081,-185.061,-220.133,1.83,-71.122,-159.25,112.184,27.65,76.27,14.42,54.94,38.91,67,10.08,28.63,41.06,77.65,58.44,77.85,2,2,23/2/2026 15:18
236,16,36.89,37,85,69,98,99,-1.439,0.179,-0.65,0.123,-0.5,0.873,-135.766,71.259,-233.139,-67.725,40.301,25.665,44.74,16.83,82.93,68.73,28.19,45.48,87.33,39.42,70.72,77.8,37.47,40.45,2,2,23/2/2026 15:19
237,16,36.3,37.07,77,76,99,100,0.617,0.245,1.046,-1.507,0.529,1.092,-139.446,0.332,-16.858,-132.101,-2.18,80.445,70.31,28.85,77.68,17.75,59.51,28.89,43.7,29.33,83.72,72.13,40.37,25.33,2,2,23/2/2026 15:20
238,16,36.66,36.25,96,73,96,96,-1.789,-1.467,-1.413,1.048,-1.873,-0.129,52.14,180.385,14.5,193.843,-15.273,240.294,41.34,85.92,47.61,74.64,49.9,23.75,49.4,63.96,81.49,24.62,66.58,49.2,2,2,23/2/2026 15:21
239,16,36.32,36.98,98,100,97,95,0.227,-0.186,-1.649,0.828,-1.284,-0.176,70.077,-39.992,129.955,-9.161,77.659,103.087,33.45,33.42,27.96,66.34,10.21,65.54,29.74,47.32,21.23,80.94,65.31,40.22,2,2,23/2/2026 15:22
240,16,36.43,37.07,82,91,94,95,0.484,-0.89,-1.63,0.684,-0.425,-1.066,-229.93,138.557,-177.423,211.373,-207.562,-144.897,85.37,75.29,20.24,17.1,52.97,62.93,58.21,89.15,33.44,84.57,44.55,77.93,2,2,23/2/2026 15:23
241,17,36.13,35.85,89,73,97,95,-0.751,-1.025,-1.238,-1.538,0.872,-1.228,-181.621,226.81,-202.165,188.61,24.91,244.562,85.82,46.24,89.97,80.06,13.83,49.29,57.69,60.97,57.96,46.63,75.18,35.31,2,2,23/2/2026 15:24
242,17,36.29,37.2,109,90,100,98,-1.7,1.858,1.484,1.721,-1.423,-1.848,-167.251,82.907,-144.362,-218.593,-138.08,234.4,24.45,13.37,87.74,38.94,89.38,50.92,54.73,15.07,14.25,18.2,80.88,66.95,2,2,23/2/2026 15:25
243,17,35.52,37.25,83,99,100,95,0.789,-1.132,-1.768,0.11,0.401,1.45,73.271,-73.824,88.989,-69.597,50.169,134.413,45.34,62.09,46.82,30.84,54.84,24.21,57.82,23.49,38.29,29,87.93,28.57,2,2,23/2/2026 15:26
244,17,35.94,36.05,61,109,95,97,0.841,0.786,-0.256,1.939,-1.714,-0.258,14.294,197.705,-83.213,-207.702,-156.516,208.213,45.66,72.35,84.24,61.95,48.22,68.71,21.55,67.91,26.66,81.64,54.29,79.15,2,2,23/2/2026 15:27
245,17,36.72,37.22,108,71,96,98,-0.161,0.715,1.206,1.359,-0.712,1.945,219.148,-199.151,-182.722,171.772,-71.894,-88.367,13.95,56.04,50.4,79.92,16.09,51.45,78.33,42.01,28.67,89.13,18.47,42.49,2,2,23/2/2026 15:28
246,17,36.59,36.93,95,96,94,98,0.651,-0.703,0.407,0.161,1.411,0.668,-216.271,-240.539,-179.056,-151.248,-21.306,199.08,48.9,59.14,52.91,64.26,69.36,63.18,57.08,22.61,19.46,65.7,52.54,70.14,2,2,23/2/2026 15:29
247,17,36.42,36.03,93,65,99,98,0.867,-0.299,1.2,-0.583,1.581,0.565,-83.452,139.76,-116.204,-63.089,5.973,201.74,86.93,17.81,74.74,13.13,88.05,32.53,70.04,41.37,32.92,15.75,84.58,88.55,2,2,23/2/2026 15:30
248,17,37.48,35.98,105,101,99,94,1.96,0.908,0.679,0.671,0.82,-1.386,221.042,-90.398,68.312,41.195,140.201,-215.763,77.93,69.07,32.89,42.35,12.34,30.02,36.34,18.11,67.48,13.95,11.91,40.48,2,2,23/2/2026 15:31
249,17,35.52,36.62,98,82,100,97,1.651,-0.451,-1.902,1.594,0.002,0.806,-143.434,32.334,-237.146,193.567,-216.773,-201.828,13.62,64.19,79.92,38.09,31.95,65.39,69.97,51.17,23.07,89.18,54.45,62.26,2,2,23/2/2026 15:32
250,17,36.43,36.9,60,107,98,95,1.968,-1.192,-1.417,-0.241,-0.258,1.67,-194.104,178.461,-118.022,-216.698,193.798,-199.186,60.75,75.49,81.04,18.9,38.36,43.52,83.29,82.28,87.97,84.01,29.26,70.6,2,3,23/2/2026 15:33
251,17,35.91,36.98,73,69,100,94,-0.737,-0.917,-0.895,0.797,-1.534,0.527,-45.662,121.551,45.545,184.666,-47.351,120.584,26.11,76.57,72.34,11.14,13.12,81.43,19.88,88.47,58.16,21.17,76.85,74.72,2,2,23/2/2026 15:34
252,17,36.37,35.99,74,68,97,96,-0.003,0.406,-0.877,1.518,1.526,0.551,-118.261,238.048,122.019,152.588,16.162,-32.784,67.55,17.31,60.02,46.36,82.05,84.96,16.2,15.23,18.38,26.36,38.32,42.17,2,2,23/2/2026 15:35
253,17,35.59,36.69,69,73,95,98,1.366,-0.96,-1.1,0.983,1.027,-0.501,26.399,9.557,-196.246,67.147,-8.978,-111.131,60.84,18.28,86.01,80.84,59.71,42.7,80.99,31.74,50.82,76.41,16.28,63.59,2,2,23/2/2026 15:36
254,17,37.43,35.68,81,87,95,95,-0.377,1.836,1.764,-0.252,-0.366,-1.673,179.762,42.161,-248.328,96.748,176.835,-80.511,45.21,47.5,48.8,74.44,10.98,49.74,67.64,15.44,70.86,45.24,61.15,62.16,2,2,23/2/2026 15:37
255,17,36.09,36.69,81,65,96,99,-0.015,-0.222,1.612,0.302,0.226,-0.011,-219.132,67.154,-196.822,5.309,221.997,158.754,10.52,54.66,47.01,46.75,59.51,79.12,15.83,29.49,14.91,16.84,26.94,84.91,2,2,23/2/2026 15:38
256,18,36.57,36.13,79,89,96,98,0.119,0.692,-1.89,0.101,0.269,0.682,178.444,-85.888,-86.637,187.117,249.542,-135.027,19.51,76.38,20.04,11.87,25.43,29.5,59.58,55.46,45.44,35.5,69.28,76.23,2,2,23/2/2026 15:39
257,18,37.33,35.62,88,93,100,100,-1.129,1.36,-1.666,-1.278,1.011,0.046,-195.575,-170.865,-246.5,-195.506,-64.234,82.077,23.95,89.11,20.18,22.06,63.96,47.95,36.21,18.69,28.42,52,34.02,64.38,2,2,23/2/2026 15:40
258,18,35.61,35.9,62,79,96,95,0.709,-0.458,-0.74,0.587,1.089,-1.762,-204.083,-125.099,0.395,88.288,-107.159,-115.205,73.94,17.58,82.87,57.49,43.61,46.86,27.98,50.94,25.6,28.9,74.43,15.59,2,2,23/2/2026 15:41
259,18,37.16,36.09,76,72,100,95,1.799,1.787,0.53,1.241,-0.855,0.601,-80.056,-23.539,-11.082,-31.439,130.296,-97.253,49.94,81.83,10.49,67.14,36.24,70.55,47.85,69.3,70.9,59.33,21.83,37.61,2,2,23/2/2026 15:42
260,18,37.39,36.84,60,99,100,100,1.322,0.874,-1.495,-0.441,-0.52,1.075,42.757,-108.64,15.256,49.552,-159.061,74.666,68.04,14.45,81.08,50.36,76.6,45.89,84.99,28.15,83.69,66.94,14.28,86.93,2,2,23/2/2026 15:43
261,18,36.25,36.54,101,65,99,100,0.3,1.82,-0.76,-1.258,-0.979,-1.856,-245.105,-95.864,24.73,110.926,26.133,171.95,36.61,30.15,16.42,88.66,10.45,28.09,10.36,30.81,67.93,16.29,23.35,23.69,2,2,23/2/2026 15:44
262,18,36.36,36.95,75,95,98,97,0.106,-1.711,-1.227,0.669,-1.723,-0.415,218.394,129.207,-147.825,126.13,238.078,14.064,39.59,66.51,32.8,62.99,73.08,28.85,68.5,37.02,34.41,87.17,22.05,65.64,2,2,23/2/2026 15:45
263,18,36.55,35.81,109,77,95,98,0.232,1.465,-1.697,1.132,1.995,1.781,-248.057,-83.58,40.707,-119.1,246.87,112.517,56.27,81.53,39.17,78.3,40.78,22.57,14.99,20.79,77.35,65.47,78.49,36.1,2,2,23/2/2026 15:46
264,18,36.17,36.6,89,62,95,98,-0.175,-0.277,1.073,-1.695,-1.555,1.587,-69.114,-18.219,-206.607,83.501,68.043,-4.698,82.79,34.9,18.68,35.27,80.51,15.28,53.65,73.33,71.97,47.66,18.41,26.06,2,2,23/2/2026 15:47
265,18,36.13,35.95,105,71,94,100,-0.208,-1.478,1.623,-0.851,-1.504,-1.14,0.29,94.488,207.113,-47.813,67.817,169.02,25.73,83.47,50.59,70.34,66.51,79.39,53.72,47.85,71.93,80.83,28.02,40.93,2,2,23/2/2026 15:48
266,18,35.68,36.49,103,77,100,94,-1.256,-0.788,0.214,1.041,0.87,-1.355,-17.846,97.576,-249.878,242.571,-47.498,157.305,30.33,88.24,40.4,89.51,64.75,36.03,36.37,45.05,81.77,58.17,44.03,48.53,2,2,23/2/2026 15:49
267,18,35.83,37,95,86,97,100,0.774,-1.1,-1.893,1.716,1.385,0.853,-182.466,63.996,154.149,72.316,-111.002,-23.841,36.93,83.58,30.08,22.29,64.18,73.43,43.05,77.93,70.31,84.03,36.68,35.75,2,2,23/2/2026 15:50
268,18,36.33,37.15,69,76,97,100,-0.282,-0.987,1.11,1.148,0.681,-0.536,236.409,193.584,-204.789,6.71,191.532,147.156,50.6,87.14,14.41,70.17,48.05,82.65,40.34,43.05,20.5,16.31,56.98,63.93,2,2,23/2/2026 15:51
269,18,37.18,35.95,97,69,99,98,0.779,0.101,1.247,-0.186,-1.604,-0.211,246.235,-179.41,-197.375,174.864,-4.671,216.215,29.48,16.78,34.68,44.01,31.98,32.61,41.76,69.02,35.07,78.69,55.09,24.78,2,2,23/2/2026 15:52
270,18,36.56,35.89,81,75,97,99,1.674,-0.588,0.073,-0.93,1.059,1.307,-243.255,36.165,71.521,53.291,-63.159,-105.547,49.12,62.94,52.21,31.53,57.18,44.77,11.65,48.39,36.06,41.91,24.65,10.54,2,2,23/2/2026 15:53
271,19,36.82,36.68,86,80,94,97,1.472,-1.546,-1.296,-0.285,-1.541,-0.928,-67.858,210.806,55.725,-19.943,-91.271,-139.505,14.82,17.38,14.33,22.04,77.8,42.56,11.01,54.64,52.07,79.46,24.21,56.86,2,2,23/2/2026 15:54
272,19,36.56,35.6,70,84,99,97,-0.137,1.755,-0.354,-0.86,0.147,-0.91,-124.765,-201.151,-75.245,-238.843,30.365,111.398,48.79,56.1,68.67,49.57,69.8,34.81,40.48,58.8,46.59,20.55,53.7,21.94,2,2,23/2/2026 15:55
273,19,37.19,36.68,99,101,99,96,-1.835,-1.914,-0.063,0.792,1.517,-0.189,5.656,-236.018,211.146,161.345,-128.352,77.567,18.97,22.73,24.05,68.1,58.86,43.26,82.03,67.37,45.43,30.59,41.08,89.91,2,2,23/2/2026 15:56
274,19,36.72,36.59,92,75,98,94,0.905,-1.728,0.782,1.233,-0.779,-0.038,231.652,-29.844,69.486,-48.688,-165.098,-192.426,54.77,52.65,72.8,26.1,70.61,68.2,16.92,21.53,19.79,53.17,60.31,85.92,2,2,23/2/2026 15:57
275,19,36.55,36.26,99,109,94,98,0.835,1.982,-1.106,-1.969,-1.608,-1.379,-179.933,-222.677,-15.044,-192.096,-34.317,-126.544,55.11,58.31,85.2,78.89,85.13,74.63,40.51,44.47,65.53,62.24,85.81,86.48,2,3,23/2/2026 15:58
276,19,35.79,37.5,82,83,96,98,1.049,-0.857,0.12,-0.353,-1.172,0.088,87.58,-10.783,196.909,44.769,-242.235,28.673,71.88,63.42,85.56,72.54,47.64,25.8,57.59,35.28,85.04,58.33,49.64,79.01,2,3,23/2/2026 15:59
277,19,36.01,37.24,78,73,95,100,-1.384,-0.908,-1.766,-0.244,-1.685,-1.772,-103.326,45.595,-93.574,-5.61,-45.304,180.247,65.11,32.32,63.9,38.2,68.44,72.49,30.55,58.35,22.95,45.11,40.56,16.63,2,2,23/2/2026 16:00
278,19,36.91,36.94,62,90,95,99,0.849,0.861,-1.785,1.195,0.92,0.627,-121.109,-248.7,236.477,56.425,-45.78,160.136,28.56,75.56,35.95,83.33,71.98,46.68,79.8,68.03,54.02,54.92,16.01,26.49,2,2,23/2/2026 16:01
279,19,37.32,35.59,94,87,95,96,1.172,-0.574,1.803,-0.776,-1.374,-0.614,62.198,-113.316,17.869,14.892,224.116,129.185,79.02,61.23,36.76,33.35,63.18,26.11,66.77,52.98,82.29,17.75,65.85,89.55,2,2,23/2/2026 16:02
280,19,37.42,37.48,62,100,98,96,1.621,-1.819,0.742,1.086,0.664,0.224,-62.526,167.773,-22.355,-222.359,249.336,89.184,23.99,11.43,48.34,37.32,49.56,78.81,16.4,50.22,13.02,31.99,18.83,76.72,2,2,23/2/2026 16:03
281,19,35.86,35.83,104,82,99,100,1.272,-0.554,1.756,1.842,-1.465,-0.332,242.684,-226.821,20.524,198.888,-241.513,80.345,13.28,34.47,82.71,54.11,57.04,51.32,61.69,47.72,73.6,69.28,48.12,68.96,2,2,23/2/2026 16:04
282,19,37.28,37.18,108,106,99,97,-0.355,-0.567,-1.037,-1.764,0.712,-0.676,-110.958,-87.947,-164.226,58.158,-205.548,-147.758,50.67,81.6,43.73,20.68,43.53,37.54,58.59,62.01,69.94,57.64,89.15,52.98,2,2,23/2/2026 16:05
283,19,36.03,37.05,91,101,98,94,-1.687,1.742,-0.599,1.813,-1.185,1.15,-211.65,-168.102,-248.239,24.438,-82.323,155.811,27.03,43.25,52.61,62.04,77.93,32.82,71.16,28.58,13.96,81.96,43.33,16.62,2,2,23/2/2026 16:06
284,19,36.63,36.49,77,95,94,95,-1.519,1.408,-1.531,0.333,-0.598,-1.866,-51.116,-195.642,226.809,110.882,144.53,-219.174,39.68,36.62,21.99,59.07,47.93,88.36,53.78,31.41,15.67,59.43,41.06,25.01,2,2,23/2/2026 16:07
285,19,36.99,36.51,67,77,99,98,-1.839,-0.306,0.288,0.966,-0.18,0.633,52.161,18.265,-152.686,-155.362,138.178,106.364,11.76,58.82,72.76,81.74,54.71,12.14,60.58,32.97,23.2,79.33,11.31,25.83,2,2,23/2/2026 16:08
286,20,37.29,37.44,75,70,94,94,-0.893,0.099,0.25,1.733,1.236,-1.347,75.721,-205.09,-188.652,-102.419,56.512,-170.333,65.63,86.44,86.45,68.75,75.46,81.4,49.48,36.69,86.99,26.79,25.32,64.66,2,3,23/2/2026 16:09
287,20,36.63,37.18,97,101,100,95,-0.918,1.591,-0.186,-1.334,1.751,-1.018,160.262,-133.025,-110.829,-155.025,248.863,222.64,28.64,37.83,65.03,29.19,45.25,17.74,48.98,85.1,70.65,61.53,13.08,80.57,2,2,23/2/2026 16:10
288,20,36.17,36.19,66,66,96,99,-0.903,0.956,1.537,0.787,-0.258,-1.686,243.313,213.684,172.247,97.46,-55.377,220.694,43.19,47.59,19.05,39.33,88.18,51.76,12.34,30.15,39.4,10.79,16.01,83.81,2,2,23/2/2026 16:11
289,20,36.93,35.72,71,99,94,98,1.752,1.625,0.745,0.09,1.769,-1.666,-24.92,240.5,-87.989,215.255,202.628,101.17,31.97,73.37,40.2,85.13,27.59,76.96,28.68,16.37,61.45,39.54,80.3,85.86,2,2,23/2/2026 16:12
290,20,37.39,35.99,81,61,96,99,1.081,-0.944,0.15,1.104,1.725,1.275,-184.079,75.355,124.417,136.51,122.571,10.622,81.83,79.68,45.4,16.52,21.12,42.06,32.87,54.38,58.07,33.92,51.11,40.07,2,2,23/2/2026 16:13
291,20,37.29,36.68,80,87,97,96,0.542,0.158,-0.411,-0.781,0.766,0.903,77.042,-54.131,123.878,100.989,-115.266,115.2,57.62,33.81,71.37,63.28,10.76,11.21,30.83,23.18,40.94,26.86,47.35,42.18,2,2,23/2/2026 16:14
292,20,37.14,36.23,83,90,97,100,0.406,-1.261,0.216,0.746,1.539,-0.465,28.734,-179.465,54.469,-69.108,-185.317,-186.458,12.49,64.43,10.34,24.7,16.72,76.07,10.87,30.38,51.79,73.51,64.4,23.47,2,2,23/2/2026 16:15
293,20,36.76,36.57,104,103,98,99,1.25,1.53,1.581,-0.32,-1.266,-0.76,-52.52,-231.929,84.738,-3.138,-71.99,68.825,68.02,62.14,30.83,85.34,75.64,36.68,15.67,24.52,60.33,87.24,83.05,64.1,2,2,23/2/2026 16:16
294,20,37.12,36.45,77,78,97,97,0.593,0.253,-0.679,0.821,-0.509,-0.721,66.076,-116.592,-160.863,103.648,240.157,-233.869,58.81,44.67,56.46,76.82,61.06,23.99,42.14,47.11,58.06,38.26,53.43,71.9,2,2,23/2/2026 16:17
295,20,37.44,36.75,72,62,97,96,-1.904,-0.703,-1.678,0.91,1.421,0.835,-130.891,22.587,-46.723,-129.402,132.999,-224.721,74.46,87.42,82.29,39.44,29.31,53.95,25.33,22.93,51.13,42.5,38.55,85.57,2,2,23/2/2026 16:18
296,20,36.31,36.14,76,87,94,97,-0.2,0.173,1.582,1.045,-0.483,-1.687,-110.493,-242.518,-236.167,-56.286,35.863,-98.459,88.77,82.63,28.18,29.94,44.34,19.33,57.39,77.24,27.63,72.6,65.11,11.37,2,2,23/2/2026 16:19
297,20,36.83,37.11,87,89,95,96,-1.637,1.518,1.032,-0.758,0.905,-1.811,-54.926,-120.451,247.342,172.587,-62.561,-117.555,22.67,26.5,54.44,70.62,20.95,19.76,20.54,26.38,45.52,40.08,66.43,40.18,2,2,23/2/2026 16:20
298,20,37.35,36.74,74,79,99,95,0.208,1.932,-1.831,0.554,1.729,1.446,-228.75,-31.514,-95.579,184.624,-204.914,-175.397,63.05,11.55,57.46,53.62,65.09,78.28,83.21,46.26,57.49,62.98,41.56,16.01,2,2,23/2/2026 16:21
299,20,36.2,37.25,65,94,98,99,-1.566,0.759,1.446,-0.716,0.015,1.678,106.025,134.245,79.184,-161.464,126.588,185.497,28.43,30.54,35.78,48.99,69.48,62.98,87.24,77.22,49,70.64,22.12,42.61,2,2,23/2/2026 16:22
300,20,37.14,37.26,92,95,97,95,0.607,-0.802,-1.74,1.259,-1.349,0.503,76.739,25.187,224.465,129.858,-215.848,98.977,88.63,87.98,55.7,82.28,16.63,60.23,71.66,54.86,89.04,84.52,45.89,80.95,2,3,23/2/2026 16:23
301,21,36.13,36.14,78,73,96,95,-1.966,-1.351,1.984,1.157,0.97,0.531,36.99,115.828,19.653,48.887,-204.976,-198.144,89.15,86.86,46.05,13.94,17.91,53.13,40.79,77.8,61.59,34.17,24.38,64.04,2,2,23/2/2026 16:24
302,21,36.37,36.21,78,85,95,95,-1.799,-1.523,1.707,-1.805,-0.396,-1.498,245.559,165.609,2.967,-8.078,-183.477,165.14,84.89,32.23,44.38,37.45,56.78,80.81,21.58,69.69,64.66,12.16,42.62,12.84,2,2,23/2/2026 16:25
303,21,35.91,35.56,100,68,95,96,-0.792,0.784,0.77,-0.885,1.702,-1.052,-106.264,238.43,47.709,-246.311,-68.748,146.914,27.9,23.86,85.94,79.55,10.11,32.83,17.05,41.53,73.62,59.43,39.78,54.58,2,2,23/2/2026 16:26
304,21,36.56,35.98,95,98,99,98,1.729,0.006,-0.927,-1.29,-1.98,1.739,136.737,213.836,-186.114,-93.339,-119.234,166.438,21.3,48.9,59.9,55.83,35.03,50.63,38.01,64.16,20.12,62.9,31.31,40.14,2,2,23/2/2026 16:27
305,21,35.64,35.88,86,76,96,100,-0.208,0.018,0.238,1.264,0.05,-1.824,234.722,120.858,119.013,-68.022,-220.427,155.537,51.05,35.84,68.22,82.53,67.55,27.82,33.81,81.25,59.72,31.41,30.85,44.41,2,2,23/2/2026 16:28
306,21,37.08,37.28,109,85,96,94,-0.359,1.699,1.156,1.478,-1.472,-0.102,121.502,208.644,-168.213,177.96,-154.519,43.291,21.5,35.73,56.5,43.55,79.25,31.81,20.23,24.66,83.11,36.96,23,12.3,2,2,23/2/2026 16:29
307,21,36.31,35.67,96,78,94,97,-0.987,-0.212,1.026,-1.714,-1.033,-1.74,79.537,227.372,88.856,-169.803,13.478,-234.201,58.13,49.85,44.86,54.16,80.41,30.52,67.18,35.98,60.36,55.87,79.28,83.77,2,2,23/2/2026 16:30
308,21,37.05,36.99,63,105,96,94,-0.795,-0.87,-0.624,1.188,0.981,-1.511,-19.951,99.139,11.903,68.056,128.219,-186.4,80.91,38.59,41.08,15.51,77.13,41.21,68.77,22.28,86.92,73.23,46.23,79.72,2,2,23/2/2026 16:31
309,21,36.67,37.07,95,90,99,99,-0.52,1.207,0.808,-0.42,-1.438,0.546,-235.993,-247.261,-231.306,-61.684,58.768,64.589,70.83,45.32,51.22,31.41,48.53,60.28,48.47,44.52,10.04,16.21,27.93,39.95,2,2,23/2/2026 16:32
310,21,36.49,36.72,93,101,98,95,0.225,1.318,0.483,-0.205,0.287,0.58,-68.524,-21.963,-85.952,92.293,-179.402,108.619,41.74,10.63,19.24,26.79,85.63,35.65,88.61,31.36,31.7,44.38,62.11,77.79,2,2,23/2/2026 16:33
311,21,35.93,37.27,69,96,98,96,0.171,-0.118,-0.568,1.436,-1.132,-0.966,173.072,-166.328,84.065,-87.006,-12.083,214.162,70.66,37.04,52.79,32.92,52.75,61.72,20.98,59.78,55.36,34.32,62.55,58.26,2,2,23/2/2026 16:34
312,21,36.71,35.82,106,68,97,97,-1.185,1.074,-1.98,1.566,0.557,0.66,-218.66,-6.097,115.717,-60.064,125.628,-134.597,80.3,33.18,71.55,24.14,70.8,37.94,40.52,66.58,84.42,36.65,64.38,32.26,2,2,23/2/2026 16:35
313,21,36.99,37.05,77,66,94,99,1.56,-0.04,1.437,0.858,-1.127,-1.549,37.596,-145.491,2.069,-54.429,-172.494,-235.809,69.99,42.14,56.68,45.88,88.33,60.69,23.56,10.54,83.7,11.08,52.73,25.71,2,2,23/2/2026 16:36
314,21,37.46,36.75,61,65,96,98,-0.711,-1.809,-1.547,-0.484,-1.697,1.445,-107.618,150.08,21.854,166.047,-203.341,55.927,70.5,12.85,39.37,68.3,77.88,23.37,50.8,41.05,77.1,11.43,52.73,36.53,2,2,23/2/2026 16:37
315,21,37.44,36.32,93,99,100,95,-1.065,-0.667,1.311,-0.126,-0.229,1.592,-67.604,99.418,187.984,-55.409,198.174,132.713,46.77,81.41,11.19,55.3,44.49,61.35,49.29,50.74,42.64,60.07,18.1,10.7,2,2,23/2/2026 16:38
316,22,37.07,36.62,78,105,100,94,1.546,0.472,-1.931,-0.78,-1.456,-0.548,-233.994,-22.81,122.765,-245.455,-67.845,-77.518,32.67,85.51,26.99,22.32,88.01,71.02,61.69,56.14,66.95,11.65,63.71,17.31,2,2,23/2/2026 16:39
317,22,37.32,37.46,109,89,94,100,-1.213,0.486,0.237,-0.25,-0.219,1.088,-116.013,-125.405,-189.936,-57.532,-50.616,-73.175,27.88,84.29,25,39.33,88.34,10.51,18.88,10.08,29.33,79.11,59.61,80.55,2,2,23/2/2026 16:40
318,22,36.78,36.88,70,85,95,99,-1.353,-0.479,1.029,-1.315,0.118,0.939,221.903,-29.265,-68.474,98.306,198.409,-166.277,70.92,84.4,82.79,74.04,73.32,28.12,64.92,40.32,67.04,66.9,25.4,78.24,2,3,23/2/2026 16:41
319,22,36.42,37.25,79,93,97,94,0.156,-1.257,-1.531,-0.13,0.398,-1.703,-88.989,7.252,-146.058,-243.847,45.098,33.949,45.75,53.7,78.3,44.42,87.34,66.59,20.74,72.88,74.44,24.93,38.03,88.3,2,2,23/2/2026 16:42
320,22,35.78,36.94,99,60,98,99,0.476,-0.414,-1.984,-1.332,-1.798,0.642,-26.722,110.012,-62.4,134.904,204.597,-126.026,81.56,71.43,39.41,28.84,46.33,58.92,84.54,71.09,46.4,37.99,44.85,16.43,2,2,23/2/2026 16:43
321,22,35.65,37.25,87,71,98,98,-0.34,-1.698,1.537,-0.262,1.098,-1.948,132.546,-19.827,150.185,150.718,-53.054,90.475,70.86,36.99,68.49,66.82,55.16,42.25,43.93,46.18,65.24,16.75,52.34,45.21,2,2,23/2/2026 16:44
322,22,36.87,35.56,62,85,100,100,-0.233,1.55,-1.526,0.939,1.875,1.957,-151.536,-114.339,146.751,231.171,84.727,235.975,20.82,89.31,68.13,81.91,52.73,74.89,23.67,79.54,14.68,31.74,28.82,59.76,2,2,23/2/2026 16:45
323,22,36.75,36.17,70,105,97,97,-1.222,0.667,0.164,-1.862,1.337,1.03,66.347,-200.927,-243.489,-33.94,172.825,236.73,33.34,71.52,28.71,61.25,39.48,69.25,55.29,54.42,60.77,75.7,75.29,35.58,2,2,23/2/2026 16:46
324,22,36.31,37.16,74,88,99,96,1.373,0.606,-1.196,1.822,-1.107,-0.901,196.537,232.107,-192.621,172.816,-100.785,81.803,76.76,63.54,17.04,69.76,84.59,79.02,52.1,72.7,35.69,30.98,33.37,66.27,2,2,23/2/2026 16:47
325,22,37.41,35.98,93,108,94,95,-1.93,-1.536,1.483,-1.786,-1.173,0.619,85.791,191.848,-202.152,-113.314,96.764,44.301,57.84,21.58,22.99,66.25,52.79,10.03,10.38,59.15,44.11,83.89,76.99,26.07,2,2,23/2/2026 16:48
326,22,36.7,37.39,93,60,96,94,-0.822,-1.198,-1.189,-0.342,-1.514,1.111,-77.013,-40.529,-62.563,-241.571,209.325,-214.294,50.27,10.47,41.98,29.46,18.8,75.07,46.87,21.82,78.37,26.46,78.35,23.83,2,2,23/2/2026 16:49
327,22,35.67,37.34,108,87,94,99,1.626,0.885,-1.179,1.931,-1.987,1.779,162.988,-164.642,58.943,-227.559,-228.814,-236.787,21.65,40.67,81.61,63.26,59.72,14.79,53.81,89.85,56.32,67.24,39.1,68.26,2,2,23/2/2026 16:50
328,22,35.84,36.39,60,82,96,99,-1.114,0.578,1.471,1.277,1.883,0.845,68.646,-237.217,248.172,120.426,155.01,-53.403,26.36,81.92,55.91,61.14,66.25,33.42,59.41,76.65,17.57,14.71,26.89,39.4,2,2,23/2/2026 16:51
329,22,36.19,36.37,66,89,100,94,-1.922,-1.064,-1.493,-1.205,-1.484,-1.715,-67.096,94.742,158.122,147.637,-67.722,-231.881,36.52,27.22,15.78,36.74,21.81,70.46,63.45,48.9,24.82,32.82,49.33,43.39,2,2,23/2/2026 16:52
330,22,36.53,36.22,84,94,96,100,-1.004,-0.459,0.998,1.81,-0.181,0.141,-108.926,-234.531,-249.936,-132.225,177.828,247.89,40.24,18.83,25.03,43.04,62.48,89.26,46.77,73.43,14.57,52.54,52.54,40.39,2,2,23/2/2026 16:53
331,23,37.01,36.75,102,76,95,100,-1.884,1.326,-1.083,-1.142,1.408,-0.922,68.081,244.444,-35.827,-176.031,147.387,227.202,73.9,45.18,80.26,19.95,58.71,57.16,31.73,39.74,20.97,55.11,17.01,21.82,2,2,23/2/2026 16:54
332,23,37.18,36.28,70,82,95,98,-0.786,1.436,0.062,0.845,1.167,-1.364,62.23,92.297,-137.104,193.537,184.488,198.655,84.49,15.14,67.86,70.74,18.5,33.46,32.08,36.07,77,54.7,30.28,15.25,2,2,23/2/2026 16:55
333,23,37.44,35.96,100,73,100,94,0.75,1.424,0.89,1.752,1.662,-1.557,139.514,-231.985,92.747,128.702,-72.483,-17.66,41.63,56.11,62.07,66.85,26.86,68.64,40.07,67.2,47.43,44.51,71.85,18.16,2,2,23/2/2026 16:56
334,23,36.02,37.12,93,66,96,98,-1.362,1.954,0.299,-0.446,0.527,-0.637,-181.075,-83.065,-105.354,168.895,219.41,178.949,40.31,18.62,71.46,29.26,34.87,52.79,88.04,67.62,17.34,60.68,36.66,14.72,2,2,23/2/2026 16:57
335,23,36.14,36.54,85,85,99,100,1.386,-0.727,-0.377,-0.276,-1.456,1.511,9.032,-161.319,-244.725,178.94,16.151,-112.828,36.81,69.51,11.1,37.65,89.52,45.3,22.42,27.68,80.73,88.65,14.79,54.31,2,2,23/2/2026 16:58
336,23,37.21,36.28,66,89,99,96,0.101,-1.495,-1.496,1.091,-0.285,0.513,111.618,63.379,171.758,1.433,-14.829,-184.736,78.83,40.08,16.78,84.76,63.48,63.28,25.05,81.98,38.8,30.97,50.35,13.23,2,2,23/2/2026 16:59
337,23,37.42,35.67,110,61,100,96,-1.151,-1.334,1.353,0.585,0.492,0.5,158.014,153.935,192.155,183.503,169.826,-223.93,15.89,67.41,13.44,19.31,68.07,68.57,57.77,69.72,89.03,76.94,78.86,40.96,2,2,23/2/2026 17:00
338,23,35.63,36.87,109,77,97,100,-1.762,-1.044,0.993,1.045,0.041,-1.379,141.919,53.229,130.564,-75.22,-41.878,-201.175,32.26,21.82,52.12,22.99,66.71,82.43,26.24,87.76,14.87,38.06,34.07,37.27,2,2,23/2/2026 17:01
339,23,36.38,36.17,94,89,94,99,-1.238,1.549,0.912,1.944,-0.217,1.931,135.927,156.696,168.3,109.481,-103.333,-151.568,45.82,89.95,34.68,30.49,60.41,45.73,36.62,44.3,69.82,59.81,13.03,36.37,2,2,23/2/2026 17:02
340,23,37.08,35.62,85,109,96,98,-0.523,0.692,0.181,0.145,-0.521,1.179,63.59,-186.262,-1.593,220.167,229.682,-188.157,36.71,87.89,40.42,51.67,32.69,63.37,45.95,18.02,14.81,27.57,79.5,81.35,2,2,23/2/2026 17:03
341,23,35.73,37.12,87,97,97,100,0.839,-0.682,0.389,-0.91,1.624,-1.819,138.676,-53.619,200.761,-24.855,61.854,-112.127,73.11,26.75,12.63,64.62,28.16,44.04,37.59,10.59,65.04,69.12,13.25,74.18,2,2,23/2/2026 17:04
342,23,35.92,35.84,104,90,98,94,0.915,-0.052,-1.911,-1.802,0.324,-1.778,-210.275,47.639,238.771,213.024,215.865,2.559,39.97,39.41,45.94,81.78,14.29,50.15,17.73,60.46,25.21,31.81,32.06,66.81,2,2,23/2/2026 17:05
343,23,37.27,36.24,106,70,100,99,0.242,-1.123,0.304,0.212,-0.381,1.946,-84.544,-178.671,-129.91,8.772,-156.807,-36.612,72.11,32.86,89.7,45.66,55.33,84.21,77.75,76.46,19.14,80.27,76.86,25.4,2,3,23/2/2026 17:06
344,23,37.46,36.74,79,91,96,98,1.081,-1.619,1.335,-0.025,-1.719,0.351,121.073,-57.49,-164.145,240.328,-99.574,113.022,22.72,83.96,21.53,37.66,63.42,35.01,45.63,84.92,10.22,12.65,32.97,73.24,2,2,23/2/2026 17:07
345,23,37.25,36.67,71,62,95,97,-1.803,0.37,-1.975,0.984,0.608,-0.731,-97.041,-167.315,-51.419,145.669,-162.527,31.832,15.43,26.73,28.07,84.59,49.76,15.83,83.49,85.46,16.73,66.71,82.1,15.1,2,2,23/2/2026 17:08
346,24,37.12,35.93,84,82,96,99,1.743,0.771,1.523,-0.757,-1.635,1.155,-211.08,228.046,86.278,70.059,-162.053,21.866,67.32,28.25,46.84,48.91,48.78,34.04,63.23,19.34,80.56,10.55,20.52,25.17,2,2,23/2/2026 17:09
347,24,36.51,37.45,63,106,94,96,-1.824,-1.262,1.326,-0.394,0.227,0.602,56.893,-85.492,34.367,16.407,-49.185,215.268,60.09,64.26,21.81,36.53,64.23,18.58,35.25,52.99,39.13,83.13,53.69,49.28,2,2,23/2/2026 17:10
348,24,36.97,37.25,81,108,100,100,-1.654,-1.241,-0.733,-1.922,-1.503,-1.958,-56.285,88.605,-11.347,-145.953,-2.828,-0.4,11.7,36.71,12.09,46.35,65.37,88.74,57.36,28.23,24.82,31.98,27.96,51.41,2,2,23/2/2026 17:11
349,24,36.61,35.55,90,71,100,100,0.748,0.033,0.28,-0.124,0.567,-0.255,176.284,87.703,-86.615,-151.308,-6.092,-35.154,21.63,24.13,18.35,36.44,14.07,28.24,43.75,40.48,82.18,84.9,23.52,27.49,2,2,23/2/2026 17:12
350,24,36.94,35.86,95,107,100,94,-1.41,0.693,1.126,-1.374,-1.395,1.298,-45.206,176.083,68.403,235.941,-201.256,-39.209,60.01,62.56,87.1,62.56,19.84,57.96,31.46,30.4,59.9,64.62,87.69,41.53,2,2,23/2/2026 17:13
351,24,36.72,37.43,109,69,94,100,1.775,-0.256,1.493,-0.555,1.439,0.718,199.693,-73.772,62.211,233.425,-135.161,155.381,25.16,45.48,37.8,81.25,80.52,17.75,49.74,54.33,35.26,89.22,55.49,76.94,2,2,23/2/2026 17:14
352,24,35.94,36.81,103,74,97,95,-1.153,-1.678,-0.061,0.671,1.365,-1.671,211.314,-39.157,-81.514,-247.04,-32.527,-228.064,39.58,79.09,89.5,23.48,56.07,34.44,70.06,67.23,64.14,85.79,14.05,31.58,2,2,23/2/2026 17:15
353,24,37.3,36.1,86,66,99,94,0.762,-0.837,1.549,0.166,1.469,0.665,127.432,-15.587,-9.001,97.626,-96.735,97.276,63.8,63.51,69.58,14.5,46.28,15.05,62.96,25.36,36.38,35.89,83.88,45.54,2,2,23/2/2026 17:16
354,24,37.1,35.58,76,85,95,95,0.093,-0.832,0.78,0.123,-0.995,1.841,-77.451,-225.892,-198.626,174.568,-222.054,-200.954,15.26,38.96,54.62,86.07,13.32,46.22,83.81,64.8,11.88,49.21,37.8,61.01,2,2,23/2/2026 17:17
355,24,37.36,36.37,77,88,95,96,-0.773,0.825,1.318,-0.645,0.011,0.718,119.114,195.575,119.699,179.47,110.885,-32.401,72.21,62.54,69.24,19.17,36.55,55.69,44.92,43.11,71.19,87.04,14.54,87.33,2,2,23/2/2026 17:18
356,24,35.67,35.52,99,74,94,96,0.28,-1.761,-0.702,1.525,0.946,-1.513,-181.66,102.353,67.835,248.911,-109.486,241.936,11.03,35.06,49,62.92,19.12,34.68,62.06,69.82,60.69,65.65,61.6,38.89,2,2,23/2/2026 17:19
357,24,37.41,36.81,60,94,97,94,-1.251,0.802,-0.659,-1.649,-0.115,0.508,204.127,-33.376,101.598,236.356,128.814,-79.493,28.56,22.32,78.23,82.3,85.6,83.5,55.87,42.62,75.87,34.55,12.47,82.85,2,2,23/2/2026 17:20
358,24,36.74,35.87,107,76,98,94,-0.4,1.679,-0.573,1.314,0.95,-0.745,-236.415,-92.908,5.185,-96.468,151.403,204.568,28.83,23.23,28.5,75.62,29.74,54.89,55.54,49.25,80.71,67.87,37.11,43.31,2,2,23/2/2026 17:21
359,24,35.98,35.56,110,102,97,99,-1.904,-1.643,-0.386,1.698,-0.412,-0.569,54.916,190.201,-203.678,206.175,115.917,127.345,32.93,21.4,11.52,55,47.31,20.42,45.16,54,27.35,23.78,70.8,11.05,2,2,23/2/2026 17:22
360,24,35.63,35.89,103,97,98,96,0.187,-1.157,0.83,-0.593,0.195,-0.269,56.52,-198.57,148.996,-23.536,-151.533,44.724,19.03,39.58,41.27,83.04,41.11,83.93,47.7,17.65,80.39,59.81,22.23,73.91,2,2,23/2/2026 17:23
361,25,36.58,36.99,74,67,97,99,0.016,0.275,-1.907,1.595,-1.261,-1.698,-92.813,-109.624,197.73,-208.328,243.506,36.785,12.96,23.23,65.33,79.45,27.25,16.4,38.8,51.94,82.58,11.07,48.86,40.38,2,2,23/2/2026 17:24
362,25,36.01,36.02,78,64,96,100,-1.777,1.166,1.089,-1.415,1.918,-0.212,-205.93,147.591,-58.03,-183.656,-171.86,54.352,68.73,73.35,11.24,68.38,44.88,48.2,17.99,64.07,69.04,23.27,25.2,77.85,2,2,23/2/2026 17:25
363,25,37.46,36.38,82,104,97,95,-0.009,-1.275,-0.144,-0.18,-0.886,-0.504,60.74,141.362,137.114,-198.931,-238.531,125.245,28.85,22.46,29.62,27.73,75.2,57.28,66.04,65.72,57.75,54.62,26.19,11.63,2,2,23/2/2026 17:26
364,25,37.33,35.71,96,106,95,97,1.108,-1.181,-1.904,-1.899,0.785,0.082,-12.558,-52.646,20.412,111.423,3.545,59.438,53.4,68.31,45.9,18.95,17.28,10.85,18.53,63.29,31.4,85.49,61.15,27.9,2,2,23/2/2026 17:27
365,25,37.12,35.64,87,99,96,95,-1.362,-1.166,0.287,0.994,-1.005,-1.589,238.705,40.019,192.526,91.157,-26.115,114.751,83.94,14.13,11.63,28.58,87.67,18.42,66.82,27.57,69.94,53.8,20.94,71.46,2,2,23/2/2026 17:28
366,25,37.44,37.44,99,95,97,100,0.545,-1.867,0.671,-1.202,-1.624,0.569,-29.507,-125.533,24.646,89.98,-166.043,-82.203,81.19,64.92,67.71,85.01,49.34,87.57,20.39,76.61,58.03,76.9,29.14,48.97,2,3,23/2/2026 17:29
367,25,36.27,36.14,87,76,95,100,1.179,-0.492,0.255,-1.156,1.424,1.046,-200.788,-78.034,-109.529,-153.525,24.43,159.836,68.38,13.39,75.83,50.84,48.62,37.33,68.75,73.06,70.46,14.94,36.34,14.35,2,2,23/2/2026 17:30
368,25,36.91,36,88,60,94,94,1.241,-1.928,0.394,-0.673,0.913,-1.155,-68.636,-205.611,-141.07,-239.407,-144.219,-41.804,64.89,10.88,63.92,83.78,30.72,53.66,56.99,16.45,57.21,16.22,73.55,14.72,2,2,23/2/2026 17:31
369,25,35.75,35.79,93,72,100,98,-0.035,-1.802,0.094,-1.694,-0.69,0.331,-188.001,6.022,95.474,-197.575,29.42,247.778,39.31,16.46,40.25,58.16,61.37,20.01,45.64,29.89,43.43,74.29,26.6,55.58,2,2,23/2/2026 17:32
370,25,36.26,37.02,70,78,99,100,-0.879,0.509,0.417,-0.104,-0.71,-1.634,-134.488,157.339,182.861,-104.219,-242.947,99.498,59.83,42.16,40.02,17.87,43.13,58.04,30.48,30.69,79.3,86.51,13.49,86.77,2,2,23/2/2026 17:33
371,25,36.11,35.91,60,79,97,95,-0.156,1.706,-0.076,1.638,1.371,1.925,170.189,209.667,-7.644,113.288,142.684,-170.082,45.35,30.56,50.34,17.19,63.4,18.81,37.48,39.67,52.81,61.72,58.7,20.33,2,2,23/2/2026 17:34
372,25,37.12,37.38,91,110,94,95,-0.252,-1.738,-1.573,1.719,-0.384,-0.462,-84.938,53.917,37.013,-16.617,-102.791,-174.301,67.95,48.29,66.17,55.43,85.32,36.79,78.21,86.21,13.49,14.67,39,79.73,2,2,23/2/2026 17:35
373,25,35.57,37.24,95,102,94,95,0.897,0.165,0.149,-1.294,1.358,0.011,41.327,118.722,160.636,-228.102,55.386,61.642,24.08,84.62,58.48,78.34,72.65,39.56,78.67,45.17,70.67,69.5,32.46,86.64,2,3,23/2/2026 17:36
374,25,36.03,35.89,60,108,100,99,1.363,-1.876,-1.503,1.177,-0.458,-0.038,0.826,210.648,172.755,62.009,-103.318,241.673,57.47,12.63,32.74,38.53,46.41,77.69,27.93,78.36,36.36,56.91,66.78,41.24,2,2,23/2/2026 17:37
375,25,36.74,36.1,110,71,100,97,0.498,1.627,-0.598,1.364,-1.71,-0.316,-200.834,-36.239,-228.103,89.864,-161.377,-242.771,54.21,55.21,54.74,86.3,63.44,32.36,26.82,85.89,49.54,69.73,80.68,52.86,2,2,23/2/2026 17:38
376,26,36.27,36.82,95,67,94,96,1.422,-1.632,1.273,-0.007,-1.146,0.417,-216.468,57.702,245.803,-10.161,45.146,9.935,55.81,52.6,86.38,81.5,50.2,77.04,26.6,30.32,88.29,40.91,25.52,57.44,2,2,23/2/2026 17:39
377,26,37.02,36.26,60,99,98,100,-0.001,-1.518,-0.532,0.567,0.463,-0.316,51.592,238.294,-43.059,-130.253,-194.714,48.984,70.11,32.56,18.54,48.81,49.16,31.94,51.29,71.72,38.69,29.02,60.4,36.5,2,2,23/2/2026 17:40
378,26,35.74,35.95,75,63,97,99,0.155,1.305,0.341,1.201,0.191,0.693,-203.471,248.404,57.093,-242.771,-191.484,-195.174,82.77,38.76,62.12,75.2,36.88,22.4,12.44,67.74,15.62,21.41,45.16,11.84,2,2,23/2/2026 17:41
379,26,35.6,35.6,74,86,95,94,-0.112,1.917,-1.509,-0.146,1.842,1.819,80.022,109.716,108.339,-133.051,0.547,-134.823,14.11,35.28,13.97,53.14,62.68,73.12,42.51,15.99,85.53,44.84,27.47,80.52,2,2,23/2/2026 17:42
380,26,35.61,35.89,97,87,99,98,0.579,-0.242,-1.357,-1.211,0.623,0.416,194.056,58.857,-209.727,-154.371,-79.059,-246.036,67.47,39.62,75.16,53.38,70.13,11.54,76.08,11.13,15.72,45.3,51.22,28.05,2,2,23/2/2026 17:43
381,26,35.66,35.8,108,100,96,99,0.572,-1.45,-1.695,-1.202,0.825,-0.086,11.464,-6.294,42.988,-135.424,245.628,71.961,52.49,72.02,60.47,29.37,59.48,42.49,25.06,60.97,32.28,10.55,32.86,74.63,2,2,23/2/2026 17:44
382,26,36.9,35.62,87,74,98,97,1.167,0.646,0.393,-1.295,0.899,-0.534,-38.719,-142.475,-123.833,-108.284,-29.464,-209.745,67.1,53.35,45.15,69.93,28.72,77.67,70.95,27.57,32.4,52.82,12.86,21.61,2,2,23/2/2026 17:45
383,26,35.57,36.18,71,104,98,99,-0.265,1.105,0.819,0.278,1.609,-0.184,176.78,14.84,151.736,-118.589,-152.075,-61.656,31.98,66.48,29.19,32.96,59.03,56.38,77.59,83.24,10.39,75.25,53.72,33.52,2,2,23/2/2026 17:46
384,26,37.11,36.97,86,90,94,95,1.652,-1.321,1.609,0.812,-1.639,0.421,-76.485,201.126,157.434,-242.972,58.558,-100.08,18.46,50.83,17.36,36.56,40.15,12.11,50.14,25.96,69.56,52.41,51.68,59.63,2,2,23/2/2026 17:47
385,26,36.55,36.06,109,92,94,96,0.431,-0.059,0.056,-1.51,-1.021,-0.725,-143.722,203.963,153.202,-175.746,55.533,215.199,15.92,43.32,20.57,48.13,23.09,60.81,36.32,12.66,79.01,26.47,59.45,29.82,2,2,23/2/2026 17:48
386,26,36.45,36.16,82,94,100,99,-0.799,-1.186,0.561,-1.583,1.94,-0.176,238.977,246.589,169.425,239.266,93.442,44.561,52.61,13.48,75.5,13.21,65.52,53.43,76.72,31.51,64.62,46.77,26.57,53.1,2,2,23/2/2026 17:49
387,26,36.05,37.02,64,109,96,97,0.889,0.659,-1.04,-1.837,1.072,1.743,13.514,-18.483,-69.847,66.062,-88.261,-228.918,69.22,33.16,16.97,55.76,65.67,44.73,30.5,73.09,48.88,81.23,21.6,88.27,2,2,23/2/2026 17:50
388,26,36.85,35.92,68,87,98,97,1.243,-1.389,-0.867,0.037,1.245,1.387,164.032,93.213,-177.085,-168.688,-116.428,-10.972,15.66,51.74,46.24,74.33,79.31,43.12,83.82,81.69,40.95,39.78,70.21,70.76,2,2,23/2/2026 17:51
389,26,35.8,37.41,109,93,96,97,1.242,-1.107,-1.972,-1.372,1.766,-1.702,98.482,195.24,53.404,-161.212,157.087,-192.791,43.52,34.01,22.92,28.14,66.3,82.23,39.48,71.21,24,49.3,56.17,64.21,2,2,23/2/2026 17:52
390,26,36.25,36.7,110,103,98,99,1.933,0.917,-0.362,1.808,0.432,-1.21,117.233,-45.685,-24.63,100.605,0.462,-117.302,65.53,89.93,78.15,20.5,55.41,71.9,88.42,15.76,59.33,21.42,20.64,44.13,2,2,23/2/2026 17:53
391,27,36.95,35.89,88,67,97,98,1.551,1.5,0.316,-1.328,-0.111,-0.087,178.722,-145.065,-104.383,-129.196,243.957,-120.576,53.15,12.01,10.04,38.39,81.76,45.32,10.19,47.46,30.78,41.99,75.96,70.01,2,2,23/2/2026 17:54
392,27,36.43,35.74,88,68,94,96,-1.668,-1.856,-0.862,1.436,0.466,1.241,-119.63,-169.659,216.215,-195.404,-33.71,-236.201,83.32,56.36,20.79,38.82,30.44,46.66,49.84,64.36,76.54,36.31,14.23,24.69,2,2,23/2/2026 17:55
393,27,36.49,37.22,99,67,96,99,1.858,-0.08,-0.895,-1.186,-1.841,0.223,-0.771,-107.44,-80.606,80.183,-225.259,-140.909,62.87,50.53,41.91,63.72,32.84,86.86,47.09,58.63,28.56,41.92,45.86,25.13,2,2,23/2/2026 17:56
394,27,37.19,37.23,62,100,97,97,0.278,1.994,0.715,-0.579,1.053,-0.698,176.124,-178.098,227.242,30.376,188.406,159.146,38.55,78.15,10.45,65.69,44.66,27.99,21.91,69.09,17.76,41.78,35.8,73.49,2,2,23/2/2026 17:57
395,27,35.7,36.74,99,87,99,96,0.379,-0.76,0.715,0.785,1.245,0.745,-153.155,194.985,-123.898,-79.196,193.168,-6.294,22.07,13.18,35.45,23.85,26.21,15.77,37.38,10.95,36.55,85.65,74.38,83.39,2,2,23/2/2026 17:58
396,27,36.18,35.97,103,64,99,98,1.921,-0.475,1.179,-1.372,-1.3,0.896,114.527,85.309,210.671,-126.793,167.097,-242.061,26.98,65.72,79.06,74.28,26.99,17,46.3,34.29,22.84,10.05,17.58,86.27,2,2,23/2/2026 17:59
397,27,35.59,37.47,84,74,95,96,0.717,0.525,-0.086,-1.478,-0.421,-1.139,148.331,-176.008,59.226,-95.175,-27.438,111.224,33.94,48.65,29.46,34.76,57.95,80.27,71.54,71.12,52.12,57.38,58.7,78.35,2,2,23/2/2026 18:00
398,27,36.39,37.3,86,74,98,96,1.421,-0.188,0.82,-0.305,1.035,-0.963,173.476,-189.035,190.261,-83.184,123.835,47.298,55.76,58.02,65.64,59.9,21.4,39.84,86.76,70.29,44.68,48.62,65.89,87.85,2,2,23/2/2026 18:01
399,27,36.48,37.01,105,84,97,94,-1.873,1.832,0.718,-0.294,1.868,-0.662,-157.25,214.603,37.765,99.124,73.293,245.861,65.24,26.59,51.78,54.78,66.54,78.33,39.08,60.36,45.82,17.33,54.09,85.79,2,2,23/2/2026 18:02
400,27,35.68,36.82,84,98,98,96,-0.121,-1.291,1.678,0.877,0.947,-1.752,-51.868,28.063,109.852,-2.45,-3.359,-70.115,68.94,71.55,47.05,60.16,72.36,11.8,26.19,86.09,44.76,74.83,73.8,33.11,2,2,23/2/2026 18:03
401,27,36.98,35.55,103,78,96,94,1.492,1.329,0.299,-1.059,1.045,0.783,-221.085,-214.89,-122.204,-96.216,-52.637,-43.972,80.68,85.47,83.9,50.5,81.09,34.72,40.47,17.62,51.01,46.23,49.82,68.55,2,2,23/2/2026 18:04
402,27,36.93,36.02,79,99,96,95,1.305,0.681,-1.879,-0.273,0.176,0.259,-57.516,-180.77,9.625,-39.44,155.394,21.403,52.29,19.21,80.79,61.73,38.37,67.89,64.92,29.92,49.44,75.09,33.02,77.04,2,2,23/2/2026 18:05
403,27,35.96,37.16,64,72,97,95,-0.99,0.787,-0.873,-1.905,1.84,-1.083,-191.168,-79.096,-63.653,-62.05,-83.187,-164.603,21.03,45.38,41.32,48.14,56,83.92,36.24,58.28,29.02,27.12,19.5,89.95,2,2,23/2/2026 18:06
404,27,36.74,35.96,75,61,98,98,-0.95,-1.011,1.387,-1.763,1.8,-1.585,149.524,98.891,-66.619,237.628,100.328,159.209,56.32,72.32,47.74,41.36,71.57,55.89,23.74,39.34,42.53,14.98,16.83,69.24,2,2,23/2/2026 18:07
405,27,36.36,36.25,95,105,97,96,1.892,1.285,1.752,-1.765,-0.776,0.785,140.609,245.833,-172.835,43.829,228.99,212.787,36.78,24.56,49.2,65.19,75.99,11.89,21.47,23.8,25.29,27.82,40.28,54.64,2,2,23/2/2026 18:08
406,28,36.51,37.31,83,86,97,99,0.849,-1.375,0.812,0.216,-0.362,-0.314,-202.706,67.654,108.804,-6.598,108.895,-179.344,24.78,45.52,18.67,18.54,10.3,71.14,30.56,29.52,16.73,23.01,73.25,73.49,3,2,23/2/2026 18:09
407,28,36.21,36.75,74,65,94,97,-1.952,-1.121,-0.587,1.185,0.821,-0.742,190.447,93.468,-192.046,41.149,-119.408,125.737,73.71,52.16,55.69,30.14,36.12,36.09,12.71,80.55,22.46,18.48,33.62,38.67,3,2,23/2/2026 18:10
408,28,36.77,35.57,72,71,98,99,-1.057,-1.578,1.514,1.561,0.484,0.015,214.894,-87.151,40.346,-217.749,185.785,-65.649,62.69,58.18,35.31,51.33,71.1,86.97,56.1,29.42,67.24,73.94,45.12,58.45,3,2,23/2/2026 18:11
409,28,36.56,35.8,88,68,95,95,0.834,1.067,0.109,1.672,0.5,1.607,-192.641,-6.279,-192.093,65.66,22.301,0.89,15.18,83.98,44.42,71.81,51.23,30.16,65.34,26.57,34.98,25.54,46.84,41.83,3,2,23/2/2026 18:12
410,28,35.7,37.34,60,103,94,94,0.949,1.803,-0.072,-0.199,-0.703,0.821,221.754,-189.235,129.225,-148.048,85.104,-193.865,46.15,20.37,11.18,81.19,24.35,10.61,82.43,73.52,87.76,86.14,29.59,35.01,3,2,23/2/2026 18:13
411,28,36.96,36.4,96,61,97,97,1.876,-1.394,0.089,0.974,-0.237,1.456,-14.652,38.297,-230.322,-213.955,80.185,215.168,47.89,37.19,37.43,37.82,23.11,87.68,50.35,90,41.62,69.5,69.98,86.21,3,2,23/2/2026 18:14
412,28,37.01,36.82,84,66,99,96,-1.279,1.107,-1.27,1.928,1.784,-0.911,94.234,-159.684,153.565,72.614,68.961,42.402,42.1,31.07,22.04,73.8,42.91,86.03,31.57,60.92,11.45,51.87,80.75,70.22,3,2,23/2/2026 18:15
413,28,35.94,37.47,82,101,97,95,-0.88,-0.544,1.818,0.343,-1.713,-1.985,-96.986,141.033,-49.867,99.981,-56.772,29.593,24.69,38.65,39.62,43.74,33.36,53.91,36.13,87.96,18.66,11.49,14.23,51.62,3,2,23/2/2026 18:16
414,28,35.76,36.35,84,94,99,98,1.33,1.682,0.029,-0.028,1.765,0.508,184.292,25.48,-217.22,25.9,-48.881,127.94,30.39,15.79,58.37,67.88,61.19,34.09,89.5,24,61.08,19.57,79.72,10.8,3,2,23/2/2026 18:17
415,28,36.55,36.16,86,72,97,96,1.704,-0.5,1.582,0.816,1.728,-0.831,215.255,-24.996,81.73,224.973,-69.918,-100.619,41.28,51.81,57.82,56.64,23.79,69.21,38.74,52.68,35.46,70.29,89.97,77.27,3,2,23/2/2026 18:18
416,28,36.71,36.91,66,70,94,100,-1.211,-0.948,-0.666,-0.826,-1.795,-1.645,232.146,115.531,195.314,-189.861,126.454,93.131,48.7,61.47,56.54,84.64,62.12,75.61,20.4,12.51,49.01,22.56,11.04,32.61,3,2,23/2/2026 18:19
417,28,36.25,36.25,103,98,98,100,-1.269,-0.818,0.408,0.612,0.472,-1.57,47.955,241.831,149.31,-239.309,62.486,132.651,78.9,65.09,60.44,39.62,77.32,88.34,55.78,47.35,67.67,41.77,71.98,79.09,3,3,23/2/2026 18:20
418,28,36.61,36.91,110,101,94,100,1.017,0.959,-0.653,-0.772,-0.038,-0.504,-204.022,-8.716,246.544,60.162,-191.827,-237.975,47.16,49.72,38.36,10.01,86.8,43.26,66.81,19.94,55.69,38.49,39.18,23.39,3,2,23/2/2026 18:21
419,28,37.26,37.41,61,101,96,94,-1.741,-0.452,-0.705,-0.896,-1.442,1.299,-145.709,177.375,23.101,-121.991,198.081,59.653,26.88,72.88,64.23,86.57,14.05,85.41,38.03,57.49,32.72,68.53,32.09,63.32,3,2,23/2/2026 18:22
420,28,35.62,36.05,64,106,96,96,-0.822,0.625,1.656,1.999,0.419,-0.08,47.983,246.195,-96.717,-94.4,-144.749,10.634,81.66,49.23,23.75,20.81,39.52,27.06,88.03,70.86,36.26,27.51,82.14,39.9,3,2,23/2/2026 18:23
421,29,36.11,35.91,69,91,98,94,0.872,1.312,-0.838,1.658,0.361,-1.528,-239.134,157.257,222.864,208.948,-47.323,34.221,35.57,44.18,38.13,18.83,74.38,81.43,85.36,45.77,52.54,14.08,24.91,63.5,2,2,23/2/2026 18:24
422,29,36.64,36.53,71,75,100,95,1.597,-0.617,1.075,-1.776,0.756,-1.035,106.878,-219.431,-32.567,-215.988,-85.071,-50.853,31.68,43.46,15.49,34.22,15.03,15.31,73.27,29.52,67.02,62.19,47.96,78.46,2,2,23/2/2026 18:25
423,29,37.14,36.06,75,71,97,100,-1.341,-1.038,0.806,1.977,-1.622,1.476,-103.461,-157.483,92.479,124.982,23.141,102.963,47.36,63.66,67.76,27.64,77.87,77.8,49.74,74.84,85.85,22.5,43.04,51.13,2,2,23/2/2026 18:26
424,29,35.64,37.43,77,91,94,99,0.702,1.888,-0.22,1.844,-0.594,0.255,-156.732,165.157,-249.372,125.448,41.389,-46.141,49.14,66.31,27.45,22.5,41.72,55.89,19.85,81.4,31.33,76.63,77.34,43.33,2,2,23/2/2026 18:27
425,29,35.65,37.22,109,89,97,99,-0.287,-1.369,0.044,-1.359,0.075,-1.267,40.262,125.898,-238.613,94.745,-227.424,172.733,14.69,50.47,54.86,11.1,28.1,60.73,13.15,21.04,13.3,57.52,17.88,87.93,2,2,23/2/2026 18:28
426,29,36.02,37.36,96,92,94,100,0.581,-1.418,-0.597,-1.155,0.994,0.769,204.451,231.112,120.622,214.79,207.969,239.707,41.41,69.97,20.22,77.76,70.55,60.55,71.51,71.32,65.18,65.94,47.24,84.28,2,3,23/2/2026 18:29
427,29,35.7,37.37,66,109,95,94,1.838,-1.917,-0.295,1.036,-0.768,-1.733,111.023,-178.805,108.946,-114.698,-18.172,89.486,17.08,86.95,50.12,66.97,36.23,66.82,10.14,46.92,48.71,53.59,70.88,78.36,2,2,23/2/2026 18:30
428,29,36.02,37.34,97,78,98,100,-1.588,-1.446,-1.155,1.644,1.398,-1.859,-96.3,236.669,109.991,202.892,138.962,-89.93,38.96,10.48,89.74,10.8,10.49,52.82,89.31,50.69,16.45,86.1,44.03,63.35,2,2,23/2/2026 18:31
429,29,36.57,36.46,73,85,95,94,-0.583,-1.597,-0.46,-0.19,0.421,0.619,199.183,247.782,237.427,91.317,49.109,-226.359,87.03,28.37,51.62,42.74,53.63,66.8,20.11,19.35,31.77,38.78,87,75.8,2,2,23/2/2026 18:32
430,29,37.18,37.23,94,103,96,98,0.616,1.977,1.43,-1.68,1.17,1.84,-101.726,-197.327,-180.619,154.26,-16.219,-213.26,62.82,72.3,54.42,22.14,80.53,29.45,27.77,61.58,59.6,78.35,76.36,64.21,2,2,23/2/2026 18:33
431,29,36.58,36.67,103,101,96,95,-0.527,1.206,-0.289,0.9,-0.073,-1.124,88.126,155.725,-205.977,-79.197,69.026,-107.843,24.97,79.5,70.97,48.44,75.53,73.23,10.13,14.38,29.65,70.36,64,45.21,2,2,23/2/2026 18:34
432,29,36.28,37.15,75,104,98,95,1.582,1.633,0.758,-1.453,1.067,0.085,3.812,-165.636,-238.781,-125.899,50.341,98.333,38.14,38.21,24.85,64.33,30.21,37.13,30.38,74.53,69.11,17.28,63.44,83.15,2,2,23/2/2026 18:35
433,29,36.4,36.48,95,64,97,100,0.873,0.864,0.184,-0.848,1.695,-0.896,133.496,11.13,143.421,-36.944,-126.763,-168.627,73.19,35.74,15.12,13.54,40.3,41.5,51.99,46.85,86.63,63.41,63.25,47.62,2,2,23/2/2026 18:36
434,29,35.9,35.83,97,64,96,95,-0.169,-0.858,-0.9,-1.589,-1.881,-0.078,-184.089,-236.611,143.331,142.855,40.445,-90.952,13.38,64,71.59,26.73,65.94,15.66,20.95,34.51,44.59,53.75,51.38,56.16,2,2,23/2/2026 18:37
435,29,35.79,36.17,76,94,95,96,1.679,-0.099,1.188,0.537,-1.668,1.9,226.092,121.669,225.659,-145.745,136.205,63.74,84.65,80.05,24.28,62.71,51.36,49.64,36.46,23.29,25.81,11.98,84.9,72.6,2,2,23/2/2026 18:38
436,30,35.65,35.91,90,105,96,100,1.862,1.11,-1.049,0.137,0.307,0.872,-44.072,71.717,-23.935,-126.122,-187.807,-37.053,22.33,42.27,50.53,29.98,23.22,31.13,78.88,34.54,68.25,31.21,17.2,61.55,2,2,23/2/2026 18:39
437,30,36.46,35.52,75,85,97,94,0.763,-1.813,-1.616,1.316,1.287,-0.185,-20.946,-3.177,116.382,201.953,-49.61,227.348,29.57,10.42,24.88,27.64,12.85,12.4,22.4,18.96,34.77,59.98,80.05,13.9,2,1,23/2/2026 18:40
438,30,37.03,36.44,67,107,94,97,-0.86,1.921,0.605,0.725,-1.973,1.612,160.174,209.709,151.481,-64.985,190.294,75.757,39.73,18.33,62.75,78.83,17.42,11.47,39.54,22.72,87.54,34.45,45.29,76.19,2,2,23/2/2026 18:41
439,30,35.66,37.3,86,109,100,99,-1.21,0.135,0.171,-1.507,-1.999,-0.473,-240.305,-166.013,156.084,-118.249,-170.94,-176.137,18.56,35.16,87.32,62.63,83.43,66.08,64.66,16.37,58.97,55.22,70.59,86.67,2,2,23/2/2026 18:42
440,30,36.45,36.46,95,109,95,99,0.904,1.732,0.534,0.202,0.834,-1.714,-158.214,41.125,159.219,-202.21,93.674,165.566,57.35,17.07,83.89,48.22,24.04,44.97,53.56,85.7,12.62,59.34,82.37,24.1,2,2,23/2/2026 18:43
441,30,36.98,35.7,83,102,100,100,0.801,-1.193,1.452,0.974,-1.465,-1.097,102.79,123.454,-35.055,-196.463,-113.164,-23.774,50.7,53.65,66.96,35.82,35.69,68.84,66.73,11.74,50.81,68.54,74.89,18.43,2,2,23/2/2026 18:44
442,30,36.63,36,80,107,95,96,1.403,-0.652,-1.413,-0.157,0.55,-1.699,-88.653,35.925,82.264,153.843,-158.367,-183.813,51.9,56.09,31.6,84.07,57.58,54.37,81.47,58.59,24.74,11.22,31.13,28.44,2,2,23/2/2026 18:45
443,30,35.58,37.16,61,90,98,94,0.743,-1.696,0.866,-1.2,0.182,1.169,-41.14,180.776,-2.869,-132.539,-247.081,223.619,24.78,45.35,34.4,50.18,33.22,77.37,83.44,18.3,19.44,77.33,18.42,24.13,2,2,23/2/2026 18:46
444,30,36.97,36.29,89,73,97,100,-1.533,0.651,-0.654,-1.752,1.814,1.673,-163.702,141.625,-94.977,247.759,-29.822,-83.177,17.54,79.57,74.48,83.05,19.43,71.75,31.47,76.85,59.56,83.17,89.19,15.63,2,2,23/2/2026 18:47
445,30,36.55,36.74,104,78,95,100,0.634,0.731,1.985,1.193,-1.637,-1.857,22.08,212.71,-214.72,40.829,-173.804,73.854,39.94,65.72,86.65,85.27,67.45,25.14,88.87,48.83,50.24,69.92,58.74,86.74,2,3,23/2/2026 18:48
446,30,36.99,36.76,78,63,95,97,0.773,1.053,-1.39,-1.583,0.758,1.814,99.637,37.29,133.342,240.723,78.934,-95.31,33.22,28.25,63.5,78.67,86.59,88.05,31.62,86.06,76.94,62.68,14.14,56.15,2,2,23/2/2026 18:49
447,30,36.78,37.1,84,97,98,94,-0.919,1.092,0.357,-0.896,1.75,-1.616,63.364,-160.195,17.281,-70.959,217.995,151.084,17.71,17.39,85.59,10.57,32.94,75.65,11.74,80.46,30.95,16.09,60.61,74.84,2,2,23/2/2026 18:50
448,30,36.37,35.9,65,91,100,94,-1.176,0.145,-1.714,-0.644,-1.29,0.162,-144.715,-232.725,187.79,83.95,-243.991,241.947,11.29,44.45,46.24,30.56,59.81,35.57,47.8,86.65,87.89,23.84,51.43,54.1,2,2,23/2/2026 18:51
449,30,36.53,35.82,71,83,96,98,-1.4,-0.197,0.563,1.819,-0.254,-0.523,-44.161,135.877,216.216,-107.265,19.194,38.317,75.68,71.55,73,25.84,65.98,19.46,22.8,45.22,21.17,12.94,15.83,43.8,2,2,23/2/2026 18:52
450,30,36.47,36.98,94,95,95,100,-1.629,-1.818,1.63,0.832,1.921,-0.255,-103.702,-104.245,-30.88,-37.056,241.013,152.878,76.98,43.02,29.89,56.7,21.9,24.4,71.52,63.05,72.03,63.27,39.44,70.88,2,2,23/2/2026 18:53
451,31,36.37,36.33,77,64,95,95,0.559,-1.112,-0.563,0.186,-1.76,-1.39,-10.885,-70.528,83.753,-84.054,-105.993,-138.838,43.29,24.14,66.22,77.53,52.38,51.99,22.6,59.17,25.62,30.18,27.51,57.89,2,2,23/2/2026 18:54
452,31,37.3,36.82,105,102,99,99,-0.095,1.885,-0.376,-1.706,-1.771,-0.84,39.459,12.814,-101.685,234.578,217.755,-198.794,69.65,76.19,11.59,60.1,42.24,38.49,47.21,18.07,30.75,14.92,64.63,20.59,2,2,23/2/2026 18:55
453,31,36.47,36.67,86,105,94,94,0.209,1.075,0.535,1.03,-1.674,1.448,155.056,-159.091,-108.047,-14.294,127.629,47.231,10.79,17.93,78.58,11.04,84.65,17.06,62.65,47.49,27.36,79.55,78.82,16.3,2,2,23/2/2026 18:56
454,31,37.46,37.3,86,107,99,98,1.134,0.8,-0.813,-0.405,0.014,1.566,112.176,-164.509,-103.862,16.204,-9.798,111.69,17.37,72.56,33.47,23.42,86.55,44.83,79.93,20.31,64.11,37.38,11.85,56.1,2,2,23/2/2026 18:57
455,31,36.28,35.65,107,100,94,99,1.871,1.649,1.352,-0.192,0.213,-1.898,-82.491,-91.907,-150.415,-44.039,8.048,98.013,76.28,54.25,67.48,35.91,13.9,52.42,75.57,30.78,20.35,46.06,62.31,34.49,2,2,23/2/2026 18:58
456,31,37.33,36.94,70,67,100,97,1.018,-1.961,0.019,-1.043,-1.381,1.953,-196.088,-54.095,28.306,106.369,59.498,211.09,18.03,13.1,67.94,15.1,89.22,28.89,19.94,25.33,25.86,10.36,37.26,55.3,2,2,23/2/2026 18:59
457,31,36.14,37.34,83,84,94,94,-1.162,0.853,1.619,1.551,-1.222,-1.978,44.154,-248.424,-107.063,-149.126,-192.182,42.482,72.87,77.74,86.62,60.63,41.89,80.63,87.93,77.33,24.59,58.47,29.82,26.79,2,3,23/2/2026 19:00
458,31,35.91,35.64,69,73,96,95,0.638,0.384,1.426,0.857,0.578,-1.197,-205.582,-77.394,118.552,-82.793,168.107,-64.958,53.44,35.66,14.34,31.82,26.09,79.96,63.79,63.53,88.24,71.55,77.48,20.85,2,2,23/2/2026 19:01
459,31,36.09,37.09,108,76,99,95,-0.888,0.24,-1.703,-0.668,-1.576,1.762,-96.088,-43.914,-193.863,175.07,181.884,117.844,16.27,84.57,18.58,16.72,16.36,13.14,53.67,40.33,86.35,29.01,69.17,73.94,2,2,23/2/2026 19:02
460,31,37.38,36.87,61,63,96,100,-1.645,-0.012,1.785,-0.184,-1.316,-0.676,-117.206,-31.863,162.417,-137.037,-66.832,64.043,17.02,28.46,89.09,45.57,17.96,35.25,46.94,71.69,74.73,60.87,89.55,33.93,2,2,23/2/2026 19:03
461,31,36.41,36.79,67,62,95,96,-1.039,-0.665,-0.333,-1.645,1.181,0.409,-126.636,186.741,-42.298,-77.875,-164.027,-75.829,62.16,85.66,61.26,59.77,69.53,21.75,17.37,54.36,20.75,89.65,24.86,73.19,2,2,23/2/2026 19:04
462,31,35.59,36,70,84,99,94,-1.185,1.724,-0.046,1.652,-0.884,-0.589,166.178,-28.119,47.215,194.828,-160.805,92.668,28.24,74.96,53.89,54.61,83.69,40.27,70.47,82.23,20.11,42.98,78.97,53.69,2,2,23/2/2026 19:05
463,31,36.06,35.5,96,69,97,96,-0.406,-1.871,1.547,-1.214,0.537,1.834,-160.229,-59.147,-209.881,245.676,-84.485,165.977,67.09,32.22,23.78,29.97,60.66,66.38,61.01,66.53,49.1,42.7,28.06,25.88,2,2,23/2/2026 19:06
464,31,36.1,37.05,65,62,100,95,1.459,-0.314,-0.498,-1.198,1.304,1.051,110.833,-136.616,101.944,181.016,214.421,37.892,53.52,55.49,38.68,77.01,55.88,72.27,23,29.05,18.62,12.12,30.4,14.67,2,2,23/2/2026 19:07
465,31,35.95,36.59,70,104,96,96,1.081,1.884,0.974,0.778,0.708,-0.235,-13.124,76.407,-85.861,-160.633,-41.16,-119.345,65.08,19.96,58.59,70.9,25.34,55.7,64.41,65.2,55.43,26.1,84.71,70.85,2,2,23/2/2026 19:08
466,32,36.25,35.65,75,69,96,95,0.428,1.691,-0.497,-0.352,1.62,-0.323,-138.548,-203.716,246.328,-134.084,-247.365,-144.706,19.08,58.53,21.43,58.25,77.25,48.45,48.22,43.26,39.29,66.51,29.5,85.95,2,2,23/2/2026 19:09
467,32,35.5,35.53,90,73,96,95,0.946,1.729,0.254,0.8,1.416,-0.617,-54.679,40.219,-154.785,-51.441,98.462,-116.405,18.07,63.07,86.94,69.61,30.11,31.73,23.15,35.29,40.6,16.16,27.88,84.04,2,2,23/2/2026 19:10
468,32,35.52,35.56,91,61,97,94,-0.661,0.778,-1.988,-0.382,0.509,0.373,-143.336,223.078,-135.233,-18.607,86.174,196.601,59.09,17.74,88.27,37.62,45.17,26.45,75.93,52.32,45.58,86.88,55.96,24.06,2,2,23/2/2026 19:11
469,32,36.92,36.51,85,95,97,94,0.311,1.546,-0.169,-1.502,1.276,-0.407,-102.876,235.466,69.292,3.232,-44.573,-102.631,88.36,66.51,51.04,48.57,72.08,78.47,83.21,33.43,15.1,69.22,67.07,57.07,2,3,23/2/2026 19:12
470,32,36.1,35.82,81,71,100,99,0.157,-1.758,-0.747,0.385,0.32,-0.827,-59.029,112.634,58.608,-25.856,-224.967,-71.442,43.82,41.72,64.95,12.99,30.64,32.55,46.38,30.2,76.29,28.95,11.78,33.57,2,2,23/2/2026 19:13
471,32,37.15,37.37,83,67,99,98,-1.947,0.168,-1.489,0.417,0.109,1.799,-86.986,-149.313,231.624,242.544,-244.902,-119.538,56.67,40.9,24.2,38.42,88.95,16.37,56.04,76.28,42.75,38.01,66.74,28.56,2,2,23/2/2026 19:14
472,32,36.85,35.96,64,60,99,100,1.259,-1.679,0.39,-0.825,1.791,-0.201,-12.051,-124.78,169.945,176.828,-174.101,50.448,89,60.9,34.54,70.29,57.13,77.24,42.4,73.58,28.04,73.53,50.07,65.22,2,3,23/2/2026 19:15
473,32,37.1,37.03,109,96,94,96,1.826,1.624,0.089,-0.561,1.659,-0.795,106.387,-88.633,-126.413,124.177,148.457,-47.712,69.73,89.91,85.88,55.97,46.48,32.46,71.85,60.8,37.82,57.27,70.98,36.33,2,2,23/2/2026 19:16
474,32,36.86,35.94,83,68,94,98,0.806,-0.153,-1.462,1.239,0.912,1.535,132.348,158.676,-6.986,-134.625,39.723,159.447,68.52,26.39,43.16,64.22,84.34,57.39,45.64,79.15,27.4,29.97,84.56,47.83,2,2,23/2/2026 19:17
475,32,37.09,36.64,100,71,99,96,-1.279,-1.748,0.498,-1.504,1.275,0.153,-107.499,-236.703,-161.197,-114.038,-74.939,-234.591,42.96,76.44,11.9,37.48,68.24,85.02,27.91,56.28,27.12,75.58,41.51,65.27,2,2,23/2/2026 19:18
476,32,36.53,36.45,97,96,94,96,-1.067,-1.949,0.811,0.07,1.437,-1.841,17.424,-167.854,-202.658,1.524,-190.508,241.647,84.12,34.25,89.73,71.3,78.43,42.73,56.06,59.8,85.07,67.68,66.42,81.86,2,3,23/2/2026 19:19
477,32,37.27,36.75,102,90,96,98,1.453,1.399,0.013,-0.995,-1.083,0.302,244.756,-121.364,57.182,-186.661,200.706,98.411,67.97,62.32,41.92,17.26,26.84,59.71,76.55,46.65,53.8,19.54,78.98,31.23,2,2,23/2/2026 19:20
478,32,36.55,37.23,100,108,98,94,1.08,-0.079,1.729,0.612,0.65,-0.597,-28.401,-192.791,222.157,61.519,126.554,28.575,25.62,13.53,49.6,38.16,72.33,89.9,73.67,13.06,62.96,83.78,37.1,14.57,2,2,23/2/2026 19:21
479,32,35.71,35.65,102,76,98,97,-0.81,-1.501,-1.422,-1.722,1.016,-0.834,166.989,116.127,-152.515,249.818,79.381,128.802,62.65,11.9,57.85,37.8,87.68,13.28,31.26,59.79,43.79,26.7,83.88,78.77,2,2,23/2/2026 19:22
480,32,37.19,35.79,63,82,94,96,-1.148,0.98,1.281,0.311,1.102,0.853,203.155,-193.168,45.981,-1.51,-248.291,-22.37,87.9,26.59,71.42,16.96,55.98,23.02,77.41,78.43,30.23,24.54,18,49.75,2,2,23/2/2026 19:23
481,33,37.29,37.4,92,88,95,99,-1.822,1.271,1.809,1.783,1.497,-0.205,120.182,-100.59,76.196,116.035,225.372,138.077,70.54,80.69,58.28,31.29,82.81,61.22,37.87,86.94,60.91,25.95,64.1,80.69,2,3,23/2/2026 19:24
482,33,36.19,36.63,96,68,98,96,-1.012,-1.613,0.413,-0.68,-1.521,-0.689,35.082,-191.192,-235.556,72.682,-1.259,-195.474,47.71,15.55,15.94,35.23,25.5,83.95,57.24,69.08,38.2,22.94,20.03,87.8,2,2,23/2/2026 19:25
483,33,37.18,37.01,109,96,97,98,-1.576,-0.476,0.816,-1.898,-0.85,0.968,241.72,88.478,15.654,-204.809,-229.529,117.012,23.96,33.41,39.13,40.58,72.65,29.19,46.23,21.15,70.24,53.07,14.39,87.28,2,2,23/2/2026 19:26
484,33,37.25,37.1,78,94,100,99,-0.135,1.557,0.198,0.567,1.574,-0.976,204.847,46.075,241.729,-83.405,117.936,176.27,14.54,19.48,44.29,66.26,66.16,46.75,10.14,55.1,79.93,77.33,33.69,67.44,2,2,23/2/2026 19:27
485,33,36.04,36.06,100,74,94,99,0.017,-0.824,-0.412,-1.917,-1.644,-1.72,79.247,93.446,241.471,-32.421,73.497,-125.421,37.09,21.85,83.47,62.11,71.16,41.79,16.42,76.24,38.18,62.1,72.2,31.93,2,2,23/2/2026 19:28
486,33,35.99,36.59,102,66,96,94,0.761,-1.455,1.622,-0.783,-1.77,-0.096,-60.093,226.942,-234.634,97.68,-129.719,234.629,75.82,88.59,35.79,37.45,40.15,56.95,35.27,10.89,53.49,79.69,58.67,48.43,2,2,23/2/2026 19:29
487,33,37.1,36.52,103,90,94,97,0.546,-1.464,1.285,-1.786,1.854,-1.42,192.209,138.742,28.815,212.51,-17.611,-122.598,88.7,44.33,73.85,49.03,82,23.1,25.89,48.19,37.7,55.27,62.44,10.33,2,2,23/2/2026 19:30
488,33,37.02,35.92,64,78,95,100,-1.52,1.893,-0.314,-0.983,1.135,-0.922,-120.292,175.29,223.113,52.955,108.333,-58.586,20.92,36.86,15.48,67.71,85.45,77.52,27.97,89.35,20.56,51.09,37.67,13.69,2,2,23/2/2026 19:31
489,33,36.71,36.64,63,110,97,98,1.123,1.156,1.657,-1.645,-0.848,-1.384,98.061,-171.451,140.592,-179.74,146.931,55.718,29.59,22.13,15.9,48.52,64.71,82.61,31.79,60.69,59.19,82.29,16.24,72.45,2,2,23/2/2026 19:32
490,33,35.51,36.21,81,89,100,95,-0.043,-1.812,0.715,-0.646,0.869,1.14,108.632,37.898,-42.384,24.198,81.756,203.939,67.86,35.1,55.96,22.8,48.15,81.78,74.85,31.19,33.2,30.78,68.09,19.58,2,2,23/2/2026 19:33
491,33,36.33,36.95,82,82,94,97,1.63,-1.308,1.403,-0.068,-0.705,-0.426,-206.254,224.95,-42.885,142.855,165.471,9.902,79.69,22.81,38.26,36.34,68.27,79.4,86.83,83.39,11.73,78.32,74.86,72.53,2,3,23/2/2026 19:34
492,33,36.15,36.78,82,96,95,100,0.613,-0.217,-0.246,1.197,0.136,1.798,169.701,-45.337,-97.939,-231.163,150.406,69.086,41.81,38.42,32.65,78.07,28.02,11.26,15.86,23.34,57.67,88.45,77.8,35.75,2,2,23/2/2026 19:35
493,33,35.83,35.81,109,91,100,97,-1.856,-0.046,-0.321,-0.439,0.231,1.951,-223.964,-111.386,-95.931,201.92,-2.298,-9.747,85.57,78.97,40.33,47.67,70.06,40.05,38.13,29.65,53.63,33.23,25.33,72.94,2,2,23/2/2026 19:36
494,33,36.59,36.29,95,106,99,99,-0.735,0.053,-1.551,-1.9,0.859,0.362,219.977,246.732,-13.246,-187.842,98.094,168.13,42.49,70.83,36.46,13.21,35.77,50.64,48.98,69.99,37.39,24.83,82.12,77.34,2,2,23/2/2026 19:37
495,33,36.33,37.41,77,108,96,100,-0.95,1.239,-0.869,-1.973,0.208,-0.023,65.049,-99.408,-116.044,-77.39,197.268,-225.939,33.72,73.49,62.6,54.8,58.32,30.16,31.35,38.95,77.63,80.86,74.42,21.62,2,2,23/2/2026 19:38
496,34,36.8,36.92,78,92,99,95,-1.09,1.841,0.227,1.153,1.399,0.943,-230.816,81.157,65.041,-232.257,221.972,-245.839,69.87,14.56,63.45,26.6,81.49,87.95,84.87,89.74,70.16,22.06,50.35,81.95,2,3,23/2/2026 19:39
497,34,36.58,37.33,100,95,96,98,1.718,-0.731,0.373,0.191,1.949,0.219,-62.293,201.177,-234.006,163.566,173.97,182.986,65.95,65.99,50.69,32.99,84.38,60.17,88.62,19.33,56.78,13.54,46.91,82.34,2,2,23/2/2026 19:40
498,34,36.33,36,72,68,99,97,1.655,1.484,0.618,-0.196,-0.274,-0.974,247.864,3.033,58.47,141.584,-7.448,-20.927,79,72.46,72.5,87.84,77.62,70.32,86.58,52.57,46.98,64.32,64.72,24.93,2,3,23/2/2026 19:41
499,34,36.11,35.89,81,60,99,94,0.724,-1.028,1.859,-0.316,-0.892,-0.148,-71.413,78.357,-25.378,-171.817,-129.894,-61.545,87.57,17.85,82.01,19.24,55.79,14.59,25.41,10.7,54.04,50.31,66.39,13.09,2,2,23/2/2026 19:42
500,34,37.28,36.66,79,108,99,95,-1.834,1.777,-1.026,0.62,-1.028,1.533,-118.065,54.642,174.427,73.625,156.933,231.59,27.95,51.76,63.74,76.76,33.66,63.65,53.19,16.42,79.96,77.47,50.57,56.15,2,2,23/2/2026 19:43
501,34,36.8,36.62,105,85,94,99,1.356,1.607,-0.384,1.088,1.297,-1.515,-103.112,-150.243,-70.72,175.133,-25.133,-142.802,25.15,88.08,70.72,35.81,81.46,29.65,26.52,60.77,60.34,40.94,29.95,67.79,2,2,23/2/2026 19:44
502,34,37.1,35.83,81,73,96,100,-1.073,-1.973,0.668,-1.887,-1.031,-0.898,-215.745,169.155,21.532,-64.005,-37.102,64.141,42.76,24.53,27.46,15.34,39.03,61.37,14.27,14.2,60.34,69.03,62.6,49.82,2,2,23/2/2026 19:45
503,34,36.65,36.4,100,106,97,94,1.209,-0.775,1.312,1.941,0.652,1.384,50.694,-108.499,-97.382,-197.216,142.806,-81.513,37.91,69.08,19.41,25.29,49.76,75.79,27.29,26.81,88.73,88.72,31.87,36.05,2,2,23/2/2026 19:46
504,34,37.11,37.3,63,110,98,98,-0.031,-1.757,-1.348,-0.876,0.883,-1.132,125.764,24.68,-243.826,218.704,-7.476,163.156,59.1,56.71,76.21,80.37,50.74,67.53,69.73,77.99,85.88,87.05,59.69,78.18,2,3,23/2/2026 19:47
505,34,37.07,36.01,81,65,98,96,-0.095,-0.338,-1.028,1.108,0.065,0.153,31.77,122.049,26.748,180.325,-6.903,-133.918,75.83,48.65,14.97,22.23,50.02,68.04,78.48,60.92,79.73,39.9,35.04,66.44,2,2,23/2/2026 19:48
506,34,35.96,37.09,107,64,100,96,1.741,1.355,0.557,0.633,-1.526,1.418,-84.775,207.458,166.852,-59.882,-148.713,-121.851,71.46,31.9,54.9,70.17,84.71,54.89,29.29,64.09,36.03,82.88,72.9,37.31,2,2,23/2/2026 19:49
507,34,35.51,35.6,70,99,100,96,-0.941,-0.311,1.84,-1.105,0.657,0.039,114.626,-58.692,192.862,-23.14,206.287,116.564,86.78,86.48,54.42,53.8,77.9,83.1,28.13,37.72,67.75,44.24,77.42,85.83,2,3,23/2/2026 19:50
508,34,36.28,37.21,88,104,98,94,1.761,1.371,0.09,0.06,-1.86,-1.284,203.748,-194.995,183.625,-67.365,41.88,44.282,61.54,35.35,80.26,65.57,54.62,81.94,44.69,75.71,19.21,15.85,77.12,22.16,2,2,23/2/2026 19:51
509,34,37.49,36.68,110,109,99,97,1.651,-1.115,-0.416,1.315,-1.116,1.545,-135.805,208.348,-224.656,70.459,136.701,-27.236,53.67,12.39,81.54,28.26,11.11,23.41,10.74,61.05,18.81,49.42,85.04,23.13,2,2,23/2/2026 19:52
510,34,36.19,36.56,74,110,98,97,-1.239,-0.876,0.574,1.994,0.712,1.302,-134.622,-235.886,-105.495,-209.798,-154.96,-229.997,56,25.11,15.62,79.97,44.87,34.39,63.18,16.24,88.61,22.43,33.6,47.14,2,2,23/2/2026 19:53
511,35,36.46,35.66,71,63,94,98,1.057,1.873,-1.872,0.726,0.483,0.679,-37.875,171.649,11.413,-133.04,-81.447,-111.874,79.33,57.1,61.5,29.55,17.06,69.13,76.21,64.82,18.76,44.34,63.37,10.15,1,2,23/2/2026 19:54
512,35,37.08,35.67,100,104,96,97,-0.16,-0.107,1.133,-0.661,-0.568,0.37,102.007,-170.396,-193.123,-131.036,-43.753,81.034,20.51,60.54,49.62,64.39,76.25,61.81,29.36,71.4,39.26,61.76,62.54,80.8,1,2,23/2/2026 19:55
513,35,36.19,35.85,110,96,95,96,-1.875,-1.821,0.289,-0.915,-1.501,-1.067,86.324,-70.126,-171.737,220.979,-122.656,-72.869,71.26,66.14,53.84,18.33,67.68,81.27,85.16,65.16,19.44,41.22,19.67,50.26,1,2,23/2/2026 19:56
514,35,36.02,36.44,88,110,99,94,-1.016,-0.267,-1.936,1.785,0.091,0.171,-8.129,-24.028,-132.096,-120.138,-63.833,186.691,57.49,71.96,27.87,74.35,24.16,35.46,78.92,82.29,85.68,53.89,11.67,66.89,1,2,23/2/2026 19:57
515,35,37.02,35.54,80,62,98,98,-1.114,-1.695,-1.652,-1.565,0.998,-0.968,241.407,-243.428,168.007,47.506,36.053,227.36,69.44,47.08,76.67,65.26,29.36,42.7,51.91,47.76,15.04,52.5,39.62,36.86,1,2,23/2/2026 19:58
516,35,36.67,35.53,98,107,97,95,0.012,-0.449,-1.459,1.117,1.674,0.556,-60.021,-232.638,-7.625,-35.681,-132.967,61.786,48.85,38.87,14.12,63.23,13.01,59.64,20.04,88.81,64.49,62.34,40.78,41.85,1,2,23/2/2026 19:59
517,35,36.3,37.17,82,98,100,98,-1.394,0.876,-0.642,0.544,-1.123,0.802,-163.959,214.797,-213.555,143.168,-212.835,193.025,25.68,51.77,68.68,41.16,66.53,79.18,23.14,57.33,85.53,59.85,29.79,47.69,1,2,23/2/2026 20:00
518,35,36.13,36.63,103,88,99,100,0.584,0.197,0.706,0.744,-0.413,0.749,174.155,-166.774,185.145,-236.786,93.039,-27.5,84.47,66.07,33.16,86.4,80.6,65.44,25.78,60.02,66.7,72.98,18.08,68.87,1,3,23/2/2026 20:01
519,35,36.88,37.35,79,72,96,97,1.271,1.606,-1.83,1.276,1.313,-1.532,-205.128,97.148,-32.785,210.479,118.374,48.012,16.77,38.31,37.11,59.81,55.9,38.3,67.15,54.52,74.58,15.7,55.33,89.77,1,2,23/2/2026 20:02
520,35,36.99,35.71,70,83,98,95,1.107,0.194,-0.83,1.061,-0.512,-0.038,93.999,171.432,-120.015,243.308,-52.014,216.387,86.83,61.43,57.57,37.83,89.49,39.26,24.12,46.47,33.55,68.45,75.26,79.39,1,2,23/2/2026 20:03
521,35,36.15,36.24,73,61,94,97,1.227,-0.051,0.846,-0.178,-1.729,-1.075,243.506,-167.458,68.242,-158.755,-108.051,76.212,35.49,89.47,10.58,25.15,10.51,88.06,67.71,64.44,81.92,18.12,66.19,55.78,1,2,23/2/2026 20:04
522,35,35.65,35.75,77,80,99,97,-0.206,-1.375,1.255,0.439,0.526,0.404,-97.042,224.631,-129.027,-226.187,-37.212,25.529,44.8,73.06,15.32,11.61,23.33,28.8,39.39,24.56,42.03,30.18,89.94,31.78,1,2,23/2/2026 20:05
523,35,36.98,36.37,68,73,98,98,1.073,1.601,-0.717,-0.155,-0.552,1.454,-152.881,-213.127,124.443,-223.148,-65.647,105.428,16.99,47.69,81.55,55.35,86.08,62.29,12.93,61.96,14.42,54.27,65.41,32.92,1,2,23/2/2026 20:06
524,35,36.52,36.9,82,66,100,100,-0.947,1.421,0.325,-0.877,-1.584,-1.508,163.219,1.985,-54.821,243.121,231.379,82.359,59.6,19.88,11.98,84.03,35.64,62.14,54.5,21.05,34.24,14.68,63.13,71.9,1,2,23/2/2026 20:07
525,35,37.35,36.93,62,70,95,95,-0.904,0.696,0.61,-1.09,-1.085,-1.541,-223.77,-146.244,98.684,-133.35,-221.795,-93.806,67.29,35.61,81.87,40.93,54.15,84.19,30.73,12.36,45.16,19.95,27.9,45.63,1,2,23/2/2026 20:08
526,36,36.4,36.78,93,82,97,95,-0.931,-0.195,-0.599,1.673,-1.345,-0.92,108.847,-100.163,80.793,14.623,98.099,26.679,35.85,46.33,63.91,35.91,31.61,39.73,11.69,15.63,59.08,66.11,28.32,42.13,2,2,23/2/2026 20:09
527,36,37.47,37.15,109,94,94,95,-1.853,0.097,-1.443,0.476,0.69,0.104,242.121,-103.739,-219.188,-125.431,-173.418,-197.215,23.41,74,41.86,80.76,81.06,84.94,39.03,87.76,50.5,13.63,46.62,55.09,2,2,23/2/2026 20:10
528,36,37.15,35.8,98,74,97,96,-0.719,1.547,0.016,-0.202,-1.278,-1.187,84.456,-239.011,96.66,1.696,166.69,225.618,84.4,85.82,79.72,81.03,76.15,75.1,32.9,17.42,24.52,27.62,29.42,73.27,2,2,23/2/2026 20:11
529,36,36.02,36.87,84,71,94,96,0.414,0.663,0.937,1.221,1.879,-1.862,33.277,-15.888,116.949,-179.392,49.908,-34.88,36.91,71.78,23.04,30.25,61.92,46.94,36.05,41.52,78.22,82.89,30.69,74.2,2,2,23/2/2026 20:12
530,36,37.3,36.58,106,88,95,94,1.965,1.812,0.801,-0.569,1.951,1.537,70.521,239.414,-241.201,171.479,-58.971,61.318,46.85,62.24,41.78,70.58,28.13,16.49,16.67,63.35,63.87,48.52,81.61,67.15,2,2,23/2/2026 20:13
531,36,35.78,36.29,65,74,98,97,-0.137,-1.183,-0.904,0.018,-1.389,-0.04,-34.897,38.582,-193.179,-183.809,20.013,-246.081,51.96,17.41,21.67,20.22,78.45,20.45,78.41,69.02,84.24,37.31,69.85,14.42,2,2,23/2/2026 20:14
532,36,35.56,36.44,76,90,99,94,-0.215,-0.123,0.572,1.43,-1.378,-1.153,-32.682,203.096,97.188,-245.751,76.869,-200.561,33.4,27.49,82.33,87.96,46.17,20.82,84.15,88.62,34.19,74.74,63.45,60.59,2,2,23/2/2026 20:15
533,36,37.42,37.12,73,101,95,98,1.257,-1.12,1.792,-1.995,-0.426,1.951,-71.204,-77.179,122.054,249.194,94.423,-39.931,46.43,67.09,65.24,78.21,76.67,76.5,15.01,29.54,23.52,33.17,17.73,80.12,2,2,23/2/2026 20:16
534,36,36.16,35.69,99,83,94,98,-0.323,1.223,1.467,-1.003,1.073,-1.369,-95.603,-76.593,25.864,-74.837,-95.604,-24.883,18.78,62.51,52.81,17.47,72.99,35.94,65.19,36.56,76.42,18.23,32.06,25.87,2,2,23/2/2026 20:17
535,36,36.49,36.26,90,74,99,94,1.88,0.815,0.865,-0.635,-1.815,0.648,-45.55,-141.286,138.843,194.957,171.068,-247.533,79.63,14.01,56.49,30.06,21.61,17.71,29.15,67.83,68.07,66.1,75.24,50.4,2,2,23/2/2026 20:18
536,36,37.01,36.48,74,69,98,98,-0.503,1.065,-1.416,-0.752,-0.621,-1.182,121.089,-99.549,216.058,223.902,59.011,206.329,61.39,66.44,19.91,73.36,60.27,80.34,49.82,74.21,17.64,74.86,50.16,42.75,2,2,23/2/2026 20:19
537,36,37.3,36.97,70,79,98,97,-1.86,0.184,-0.61,-0.281,-1.837,0.402,-188.585,-245.129,-21.772,170.818,162.939,128.188,78.77,16.45,23.44,16.92,12.49,42.48,14.42,83.18,78.51,62.72,16.38,13.77,2,2,23/2/2026 20:20
538,36,37.03,36.23,70,68,95,100,-0.642,0.209,0.487,1.447,1.583,1.258,-21.909,83.89,185.781,-1.962,-82.812,-93.352,79.58,63.21,51.97,19.72,39.65,74.9,30.1,31.87,39.23,59.36,59.18,43.04,2,2,23/2/2026 20:21
539,36,36,36.03,86,84,95,96,-1.889,-1.482,-1.72,-1.199,1.089,1.297,-122.641,-104.782,-241.164,-212.926,-120.035,10.864,76.56,70.42,20.3,12.06,36.25,40.32,54.22,26.49,79.98,59.02,75.18,24.22,2,2,23/2/2026 20:22
540,36,35.53,37.45,72,95,95,100,-1.682,-0.402,0.437,0.745,-0.962,-0.697,-5.269,153.77,201.385,-160.412,33.725,248.332,73.15,61.57,71.1,46.46,43.53,66.6,41.16,82.79,27.61,54.79,81.78,42.78,2,2,23/2/2026 20:23
541,37,37.27,37.16,88,88,97,95,-0.729,-0.906,-0.696,-1.871,0.698,0.372,-116.128,55.563,172.851,-242.49,157.988,-47.549,54.91,87.58,67.89,78.39,88.66,64.35,41.52,81.46,19.44,83.87,21.93,22.33,2,2,23/2/2026 20:24
542,37,35.57,36.15,100,74,95,100,1.681,-1.431,1.238,1.876,-1.627,-0.695,-32.045,94.811,112.767,-87.811,-244.44,12.218,38.67,81.54,59.5,30.62,82.95,22.2,68.96,16.32,36.52,38.94,74.28,52.48,2,2,23/2/2026 20:25
543,37,37.32,37.16,92,69,94,94,-1.696,-1.067,0.701,-0.264,0.855,-1.725,-88.353,140.877,-4.388,43.47,4.691,137.693,55.26,21.17,64.42,88.22,74.12,47.4,58.71,89.11,53.91,12.84,41.43,65.18,2,2,23/2/2026 20:26
544,37,36.08,35.68,92,102,95,96,-0.851,-1.55,0.641,-1.739,0.983,-0.875,89.185,33.54,226.88,-67.904,-5.034,231.909,62.34,35.07,54.69,43.95,31.9,74.68,10.43,63.51,21.83,73.72,76.56,53.01,2,2,23/2/2026 20:27
545,37,36.76,36.07,100,82,97,98,1.103,-0.994,-0.513,0.577,1.797,-0.257,-3.826,-41.201,175.891,-133.698,-94.827,-228.435,39.05,53.95,55.97,18.05,14.58,51,23.36,42.88,24.25,70.79,76.96,62.22,2,2,23/2/2026 20:28
546,37,35.79,36.56,81,94,99,95,0.696,1.886,0.984,1.014,-1.012,0.675,-55.309,156.171,29.716,-87.921,248.006,225.238,54.84,50.4,48.62,56.42,11.62,37.42,88.73,80.96,17.88,44.94,21.1,52.15,2,2,23/2/2026 20:29
547,37,36.1,37.46,108,79,96,98,1.938,1.345,1.601,-0.745,-0.089,1.317,-19.721,226.456,-228.65,-34.001,188.028,74.049,46.24,31.89,18.1,29.61,55.78,61.82,77.79,42.78,64.37,24.48,35.27,42.2,2,2,23/2/2026 20:30
548,37,35.84,36.91,60,83,94,95,-1.123,1.994,0.37,0.953,-0.549,-1.305,210.907,190.52,52.971,-4.618,17.539,-155.231,69.05,54.04,76.88,17.95,75.97,16.47,83.83,71.09,89.31,37.5,72.64,10.41,2,2,23/2/2026 20:31
549,37,36.23,37.39,87,89,98,94,-1.575,1.58,-1.776,1.098,1.141,-0.108,103.768,-32.508,-156.758,44.073,-80.542,-147.508,45.97,65.26,44.57,34.46,60.37,20.27,63.92,74.7,47.99,29.78,72.45,12.17,2,2,23/2/2026 20:32
550,37,36.4,37.32,90,108,99,97,-0.46,1.511,1.689,0.182,0.305,1.95,-13.856,-37.305,85.537,67.408,-161.421,-8.691,29.9,48.72,88.1,30.28,80.57,39.01,63.33,19.59,87.63,57.41,45.2,55.95,2,2,23/2/2026 20:33
551,37,36.82,37.4,107,101,94,94,-1.576,1.31,0.397,1.428,1.023,0.088,94.724,-143.588,-194.945,205.474,86.004,96.603,32.04,27.14,62.5,36.94,23.69,40.16,75.33,11.28,85.82,30.4,10.73,26.41,2,2,23/2/2026 20:34
552,37,37.16,36.55,76,73,100,95,0.487,1.159,-0.183,1.217,1.364,-1.43,-247.677,-236.557,116.93,1.431,4.668,-4.859,31.12,75.46,38.07,50.54,64.73,88.19,25.89,27.06,42.91,43.45,84.59,66.78,2,2,23/2/2026 20:35
553,37,36.66,37.12,102,94,97,95,1.38,-1.396,-1.24,1.723,-0.878,-0.255,71.963,152.353,36.779,-175.663,-98.837,45.27,10.96,24.68,26.72,34.57,55.72,12.74,20.51,63.22,23.94,57.62,36.12,84.86,2,2,23/2/2026 20:36
554,37,35.57,37.34,72,74,94,97,1.328,1.399,0.807,-0.47,-1.825,-1.611,82.944,79.241,-205.862,47.24,96.028,44.785,80.81,89.03,59.47,20.66,43.13,41.68,11.98,11.89,58.91,50.69,88.6,78.23,2,2,23/2/2026 20:37
555,37,36.06,37.39,69,91,95,94,1.396,-0.736,-1.361,0.866,-1.181,1.409,-92.636,-211.544,-244.702,-128.215,-4.656,68.803,88.4,52.89,16.73,86.31,51.21,87.61,37.25,42.69,64.51,17.99,19.47,59.62,2,2,23/2/2026 20:38
556,38,36.57,35.92,99,83,98,99,1.064,1.613,-0.815,-0.562,-0.4,1.231,-79.521,-32.963,79.776,113.817,41.386,190.982,55.99,23.51,73.8,85,24.99,14.44,26.38,43.93,73.53,46.75,13.44,58.31,2,2,23/2/2026 20:39
557,38,36.74,37.15,66,72,100,97,-1.336,-1.643,-1.204,1.838,1.738,-0.084,-191.122,96.999,-109.663,220.394,58.047,-220.315,21.46,20.38,61.79,50.02,54.09,16.7,20.38,11.9,67.41,76.33,25.87,83.95,2,2,23/2/2026 20:40
558,38,36.69,37.02,87,66,99,99,0.756,-0.771,1.952,-1.697,1.874,1.146,212.625,84.712,-181.162,127.782,26.848,-201.26,41.29,14.28,17.74,57.55,86.39,39.98,16.55,23.9,23.8,10.69,79.53,58.92,2,2,23/2/2026 20:41
559,38,36.47,36.21,80,63,94,95,-0.683,-1.886,-0.553,0.255,1.332,-1.568,59.384,-21.265,-34.452,-50.734,119.232,-178.998,44.97,87.99,48.79,47.59,76.98,88.69,35.2,80.44,60.53,40.99,31.33,28.94,2,2,23/2/2026 20:42
560,38,36.19,36.39,69,95,98,96,0.901,-0.983,0.999,-1.095,-0.341,-0.202,89.55,129.88,174.608,-131.356,60.409,35.03,13.04,12.63,10.22,47.37,79.87,19.13,62.33,61.21,76.96,56.47,43.51,79.74,2,2,23/2/2026 20:43
561,38,35.65,35.68,96,74,94,99,-1.89,-1.504,1.753,0.723,0.997,1.029,17.068,-61.961,-249.098,238.296,-61.698,-128.872,45.15,40.87,45.82,36.16,82.85,65.16,50.57,35.84,20.35,20,11.08,37.58,2,2,23/2/2026 20:44
562,38,37.27,35.56,105,68,96,95,-1.548,1.469,-0.751,-1.591,0.493,1.773,196.942,113.417,-243.553,125.012,154.732,-32.86,23.06,29.19,56.83,72.11,12.22,14.1,62.33,23.57,84.49,68.61,55.64,34.98,2,2,23/2/2026 20:45
563,38,36.1,36.8,86,106,95,98,-0.199,-1.115,1.696,-1.559,0.064,-0.239,227.624,27.868,22.602,249.57,-82.628,199.802,35.5,22.18,88.07,29.15,42.18,30.63,72.83,81.35,48.74,35.33,60.79,71.27,2,2,23/2/2026 20:46
564,38,35.9,35.82,109,80,96,98,1.385,1.216,1.887,-0.045,-0.653,-0.588,138.858,-115.209,210.144,134.209,-88.359,74.491,36.27,49.81,84.05,35.03,57.54,88.22,47.45,73.88,32.92,27.48,22.11,15.29,2,2,23/2/2026 20:47
565,38,35.74,36.55,69,67,97,94,-0.638,-0.815,0.343,1.099,-1.923,-0.735,-126.338,249.989,-131.111,-82.828,98.062,-129.565,37.14,39.35,20.18,80.63,12.88,79.36,52.83,79.33,10.54,39.93,85.3,70.99,2,2,23/2/2026 20:48
566,38,36.63,36.39,78,105,94,96,0.686,0.473,-1.066,0.298,0.41,1.032,-34.758,-199.5,-19.223,-147.325,-39.738,-115.061,48.78,66.7,65.7,17.59,65.8,60.1,47.66,68.58,15.03,34.62,35.97,47.77,2,2,23/2/2026 20:49
567,38,37.39,36.59,69,105,96,97,0.924,1.771,0.686,-1.947,1.094,-0.036,-136.389,226.512,6.493,108.406,-232.221,232.436,76.1,64.22,52.28,20.86,27.74,79.42,66.55,79.96,71.31,46.94,26.87,42.71,2,2,23/2/2026 20:50
568,38,37.48,35.58,69,95,97,96,1.664,-0.292,0.583,-1.642,1.599,0.98,146.987,-54.621,-154.311,123.469,-111.675,167.258,86.25,11.44,76.77,11.52,70.76,66.29,69.26,56.43,60.6,89.77,60.42,26.32,2,2,23/2/2026 20:51
569,38,36.32,36.17,98,107,100,94,1.087,-1.537,-0.094,1.516,1.757,0.832,248.935,31.464,157.802,-109.222,-64.766,-160.839,18,65.17,31.61,26.95,73.86,34.72,53.3,58.21,88.11,80.75,21.99,87.46,2,2,23/2/2026 20:52
570,38,36.44,35.55,71,69,98,97,1.424,1.412,-0.337,-1.33,-0.596,1.914,-220.041,14.32,90.606,214.614,-67.223,-234.305,57.77,57.51,86.58,44.88,62.94,20.12,43.81,17.47,43.37,36.21,77.14,85.68,2,2,23/2/2026 20:53
571,39,36.75,36.75,94,97,97,96,-1.036,0.229,-0.046,-1.048,-1.397,-1.993,-187.62,219.347,-104.468,164.523,185.412,9.406,26.62,12.59,83.99,12.86,76.73,80.99,21.12,89.94,63.98,33.77,55.83,83.03,2,2,23/2/2026 20:54
572,39,37.41,36.39,92,61,99,97,-0.257,0.477,-1.159,-1.197,1.089,-0.567,-134.159,-91.059,20.613,-72.512,-80.603,-88.049,70.83,89.4,56.88,14.54,25.58,13.45,17.84,28.59,24.06,79.87,43.23,64.44,2,2,23/2/2026 20:55
573,39,36.22,36.42,75,87,96,98,-1.581,-1.893,1.613,0.313,-1.294,0.75,-151.355,-125.733,-186.398,234.864,86.401,-61.023,68.32,53.64,58.48,77.82,58.41,42.86,51.36,28.49,28.98,21.93,78.09,46.89,2,2,23/2/2026 20:56
574,39,36.23,36.72,74,69,95,97,1.356,0.086,1.902,-1.101,-0.791,1.016,162.412,86.633,42.169,120.342,-245.868,75.639,49.79,44.75,30.35,72.92,19.73,57.67,68.34,41.55,15.58,64.41,72.94,80.69,2,2,23/2/2026 20:57
575,39,37.26,37.06,81,65,97,98,-0.377,-1.448,-0.976,0.642,-1.388,-0.866,-34.582,190.949,-147.049,-150.392,-49.331,-122.285,10.72,20.9,18.66,68.03,13.15,32.66,53.66,89.57,46.64,17.42,24.58,41.16,2,2,23/2/2026 20:58
576,39,36.86,36.32,93,84,98,98,1.995,-1.764,1.433,1.179,-1.839,-1.862,201.312,-95.508,196.618,-118.883,-36.287,171.462,21.15,31.77,40.38,74.86,45.39,39.87,83.95,88.78,33.55,67.95,58.7,85.51,2,2,23/2/2026 20:59
